Time [sec],ACC X,ACC Y,ACC Z
0.025,1.06,-9.85,-0.78
0.032,0.94,-9.85,-0.94
0.052,1.1,-10.16,-1.77
0.129,0.31,-9.69,-1.14
0.157,0.27,-9.53,-0.86
0.232,0.43,-9.61,-0.98
0.279,0.43,-9.41,-1.18
0.327,0.2,-10.04,-0.27
0.381,-0.16,-10.16,-0.35
0.431,-1.18,-10.83,-0.16
0.484,-0.39,-10.87,0.16
0.553,3.45,-11.77,0.71
0.583,2.04,-12.32,0.98
0.614,4.2,-10.32,-0.55
0.689,2.63,-11.1,-2.47
0.737,0.82,-8.24,-1.18
0.788,2.63,-8.04,-2
0.845,2.67,-7.57,-2.39
0.89,2.04,-7.22,-3.49
0.937,1.61,-7.61,-3.53
0.993,1.96,-7.88,-4.31
1.047,1.06,-9.06,-5.41
1.094,1.61,-10.2,-5.22
1.143,1.88,-9.34,-6.24
1.195,6.32,-14.91,-0.47
1.246,3.65,-8.59,0.24
1.319,0.75,-8.39,0.82
1.339,1.1,-8.9,-1.53
1.393,2.39,-10.16,0.43
1.451,1.14,-8.75,0.2
1.511,1.45,-9.89,0.39
1.535,-0.98,-9.53,-0.24
1.601,-1.8,-9.18,-0.55
1.648,-0.04,-10.71,-1.06
1.701,-2.79,-11.18,-0.98
1.754,0.43,-13.02,1.06
1.791,5.45,-12.91,1.41
1.842,3.45,-9.38,2.16
2.012,2.16,-7.73,-1.84
2.061,0.98,-6.55,-3.06
2.122,1.14,-5.1,-3.22
2.148,1.18,-3.92,-3.8
2.209,2.2,-9.81,-5.1
2.266,4.35,-14.28,-4.75
2.559,2.16,-8.32,-7.18
2.565,4.79,-18.44,2.86
2.572,3.37,-5.92,1.57
2.576,1.22,-5.18,-0.12
2.626,0.47,-8.98,-0.12
2.677,0.55,-9.45,0.24
2.728,-1.96,-9.41,-1.06
2.779,-0.94,-9.81,-0.98
2.836,-2.75,-9.22,-0.47
2.866,2.2,-15.18,2.51
2.929,5.33,-12.36,1.8
2.98,5.69,-14.04,1.37
3.03,4.2,-11.41,-0.43
3.132,0.55,-9.06,-2.12
3.14,1.06,-6,-2.28
3.182,0.16,-4.9,-2.94
3.234,0.86,-3.26,-3.57
3.289,1.61,-5.22,-4.16
3.342,1.8,-13.81,-1.96
3.373,3.22,-12.63,-6.39
3.424,4.39,-6.47,-6.2
3.496,3.77,-15.14,6.32
3.525,2.79,-6.51,2.12
3.58,1.02,-4.12,-2
3.631,3.57,-13.93,1.65
3.702,1.18,-8.32,2
3.727,0.35,-9.3,0.43
3.895,-0.04,-10.4,-0.82
3.944,-2.75,-10.51,-0.94
3.998,0.04,-12.28,1.69
4.052,6.79,-12.47,1.33
4.104,4.39,-12.55,2.2
4.139,5.49,-14.16,1.37
4.199,-0.71,-10.12,-3.26
4.252,1.69,-7.22,-1.02
4.302,-0.75,-6.39,-2.71
4.353,0.43,-3.96,-2.75
4.402,0.94,-2.79,-3.92
4.499,1.84,-10.12,-4.28
4.523,5.26,-13.73,-3.22
4.563,0.9,-4.12,-9.14
4.619,8.47,-20.01,-7.02
4.684,4.47,-15.14,3.14
4.704,1.22,-7.06,-0.9
4.759,3.22,-5.37,-1.41
4.813,2.63,-12.71,4.31
4.865,-1.02,-9.1,0.31
4.916,0.71,-7.49,0.04
4.963,-0.71,-9.26,-0.94
5.066,-1.41,-10.59,-1.26
5.076,-4.2,-11.57,-0.9
5.125,-0.24,-11.41,0.75
5.182,7.18,-14.36,1.41
5.21,4.2,-13.1,3.18
5.268,8,-12.75,0.94
5.329,1.41,-9.45,-2.31
5.382,1.53,-8,-1.65
5.443,1.18,-5.88,-3.14
5.467,-0.35,-4.67,-3.14
5.527,0.82,-3.65,-5.22
5.575,0.98,-10.08,-3.49
5.623,3.69,-10.67,-4.51
5.684,7.92,-20.01,-5.69
5.718,2.2,-9.34,0.39
5.787,1.06,-6.94,-0.43
5.841,1.77,-10.43,-2.16
5.895,1.88,-10.79,0.51
5.964,-0.04,-8.24,-0.24
5.974,0.78,-8.94,-0.51
6.037,0.2,-9.73,-0.2
6.097,-0.55,-9.81,-0.35
6.127,1.22,-9.96,0.08
6.186,-1.29,-10.12,-0.55
6.238,-0.51,-11.41,0
6.285,1.92,-12.12,0.12
6.362,2,-13.89,3.26
6.387,3.92,-9.18,-0.12
6.438,5.92,-12.67,-0.78
6.494,0.04,-9.53,-1.45
6.54,1.29,-7.88,-1.73
6.593,1.96,-7.61,-3.1
6.641,1.61,-5.92,-3.84
6.7,1.06,-5.84,-3.92
6.743,0.82,-8.67,-4.04
6.797,1.41,-11.14,-4.82
6.843,2.51,-9.49,-6
6.903,1.29,-9.65,-7.02
7.005,3.92,-12.83,-2.79
7.018,6.39,-11.02,1.29
7.063,2.04,-5.61,0.59
7.116,0.16,-8.12,-0.59
7.167,2.47,-12.32,1.06
7.203,0.94,-8.87,-0.12
7.251,1.69,-9.57,0.24
7.314,-0.31,-9.69,-0.59
7.361,-0.75,-8.94,-0.24
7.418,0.04,-9.53,-0.08
7.471,0.08,-10.32,-0.67
7.529,-2.39,-10.4,-1.49
7.571,-0.98,-11.38,0.71
7.847,3.22,-14.04,0.47
7.874,1.65,-7.81,-3.02
7.936,0.78,-7.3,-3.1
7.984,0.24,-5.1,-3.57
8.014,1.06,-6.08,-3.53
8.077,1.92,-10.55,-4.12
8.135,2.71,-10.08,-3.45
8.17,1.84,-11.92,-7.1
8.231,1.41,-9.41,-6.83
8.331,4.79,-15.06,3.26
8.341,3.49,-5.57,0.24
8.38,1.1,-7.3,0.2
8.436,2.39,-11.96,0.35
8.491,1.41,-8.98,0.27
8.522,0.78,-8.63,0.12
8.593,1.61,-10.2,0.39
8.628,-0.86,-9.49,-0.51
8.683,-1.37,-9.26,-0.51
8.735,-0.08,-10.12,-0.98
8.789,-2.31,-9.92,-0.2
8.84,-0.55,-11.81,0.08
8.895,4.08,-13.22,0.67
8.963,3.96,-11.06,2.94
8.985,5.49,-12.67,0.51
9.04,2.31,-10.98,-1.53
9.096,-0.2,-8.36,-2.12
9.149,1.26,-5.88,-2.63
9.208,0.9,-6.75,-3.1
9.259,1.29,-4.82,-3.73
9.308,1.45,-4.94,-3.77
9.365,2.39,-11.45,-4.16
9.397,2.79,-14.04,-4.55
9.45,0.9,-7.41,-8.83
9.508,5.22,-20.01,3.02
9.661,1.29,-10.83,-0.43
9.718,2.43,-11.49,1.77
9.77,0.55,-8.71,-0.63
9.8,1.18,-9.02,-0.12
9.862,-0.78,-9.49,-0.86
9.913,-1.49,-9.49,-0.78
9.969,0,-9.89,-0.75
10.028,-1.8,-10.63,0.31
10.075,-0.24,-12.55,0.2
10.126,3.45,-14.2,2.31
10.19,3.3,-9.3,0.98
10.207,6.59,-12.94,0.67
10.261,2.04,-10.28,-2.04
10.318,0.86,-7.81,-1.41
10.376,1.77,-6.35,-2.67
10.431,1.02,-6.55,-2.82
10.48,0.98,-5.65,-2.24
10.533,1.29,-8.47,-5.22
10.588,2.51,-10.9,-2.86
10.619,1.61,-11.96,-6.83
10.675,3.37,-10.67,-7.77
10.737,4.31,-11.49,4.31
10.771,2.86,-5.06,-0.31
10.841,0.67,-10.2,-0.43
10.868,2.39,-11.41,0
10.927,0.82,-7.77,0.12
10.974,0.71,-8.83,-0.12
11.024,1.33,-10,0.08
11.08,-1.61,-9.45,-0.86
11.145,-1.65,-9.49,-0.9
11.196,-1.18,-10.79,-0.75
11.246,-2.04,-10.32,-1.73
11.301,2.08,-13.45,1.49
11.355,5.1,-15.49,4.04
11.381,3.88,-9.73,0.78
11.433,5.33,-12.43,0.55
11.606,1.53,-7.41,-2.86
11.662,0.82,-5.96,-3.22
11.685,0.55,-5.3,-3.65
11.759,1.26,-8.36,-2.94
11.808,3.14,-11.45,-2.86
11.84,0.75,-10.71,-7.26
11.891,-0.71,-5.41,-7.53
11.952,7.14,-20.01,4.43
12.008,1.8,-6.47,1.29
12.06,2.47,-5.22,-0.43
12.145,3.49,-9.73,-0.27
12.153,2.79,-9.96,2.82
12.212,0,-9.26,0.2
12.269,0.63,-9.22,0.47
12.298,-1.65,-9.3,-0.31
12.364,-1.45,-9.85,-0.08
12.415,-0.55,-9.85,-1.14
12.473,-1.92,-10.28,-0.39
12.521,0.67,-12,-0.47
12.574,2.35,-14.51,2.39
12.606,3.77,-10.24,2.55
12.66,5.18,-12.83,0.43
12.834,2.12,-6.9,-1.77
13.121,0.75,-6.9,-2.31
13.131,0.78,-5.73,-3.22
13.163,4.71,-18.12,-5.53
13.221,4.12,-7.85,1.02
13.274,2.47,-5.18,0.08
13.322,0.86,-11.1,0.59
13.384,2.67,-10.2,0.27
13.457,1.53,-8.87,0.86
13.486,0.75,-9.89,0.55
13.539,0.47,-9.45,0.2
13.597,-1.26,-8.79,-0.71
13.641,-0.94,-10.51,-0.24
13.693,-0.35,-9.77,-1.26
13.743,-1.53,-10.12,-1.06
13.8,0.75,-11.49,0.55
13.852,2.67,-13.96,0.78
13.904,2.75,-10.94,2.12
13.931,5.77,-12.59,-0.43
14.109,2.16,-6.9,-1.92
14.152,1.49,-6.39,-2.39
14.206,0.55,-4.75,-3.49
14.257,1.22,-6.67,-3.96
14.309,2.31,-10.83,-3.18
14.338,3.14,-11.02,-7.1
14.399,0.2,-8.32,-7.88
14.451,5.37,-17.1,-3.8
14.499,6.71,-11.77,3.45
14.552,1.61,-5.26,0.86
14.599,1.77,-8.12,-0.86
14.676,4,-12.28,2.39
14.701,0.47,-8.32,0.35
14.748,0.98,-9.41,0.86
14.801,-1.84,-8.87,-0.47
14.849,-1.96,-9.81,-0.55
14.924,-0.71,-10,-1.1
14.954,-1.41,-10.51,0.39
15.007,-0.9,-11.26,-0.67
15.063,2.12,-13.53,1.88
15.109,4.98,-11.26,2.24
15.162,4.75,-11.89,1.14
15.208,5.3,-11.53,-0.08
15.262,0.78,-9.96,-1.84
15.337,1.41,-6.39,-1.96
15.366,1.1,-6.94,-2.43
15.419,1.53,-5.61,-3.37
15.477,1.53,-4.9,-3.77
15.536,1.02,-9.96,-4.04
15.585,2.04,-13.02,-3.57
15.618,2.24,-8.2,-8.98
15.671,2.51,-8.98,-5.53
15.721,5.06,-14.83,2.04
15.767,3.02,-7.22,0.75
15.819,0.55,-6.59,0.31
15.872,2.04,-11.57,0.59
15.976,1.26,-7.96,0.94
15.986,0.75,-8.83,0.16
16.032,0.82,-9.02,0.12
16.085,-1.06,-9.26,0
16.136,-0.35,-9.92,-0.16
16.204,-0.75,-10.63,-0.43
16.234,-2.94,-10.55,-1.06
16.289,1.26,-13.81,1.29
16.337,4,-12.63,3.37
16.39,3.88,-12.28,0.51
16.439,6.83,-12.87,0.16
16.494,-0.39,-9.38,-2.12
16.55,1.61,-6.75,-2.04
16.67,1.77,-7.65,-3.22
16.68,0.16,-4.75,-3.73
16.696,0.47,-4.04,-3.26
16.753,1.61,-10.32,-3.88
16.798,3.02,-10.32,-5.02
16.854,3.3,-9.77,-7.53
16.9,5.41,-20.01,1.06
16.951,2.71,-5.33,-1.57
17.006,2.12,-4.67,-0.47
17.056,2.71,-12.55,1.73
17.109,2.31,-8.67,-0.12
17.162,-0.2,-9.1,-0.08
17.206,1.41,-9.49,0.35
17.263,1.53,-9.06,-0.16
17.303,-0.9,-9.1,-0.39
17.347,-0.27,-10,-0.47
17.401,-0.82,-10.08,-0.78
17.455,-2,-9.81,-0.16
17.503,1.69,-13.14,1.29
17.554,4.31,-15.42,2.71
17.61,3.45,-9.45,0.47
17.661,5.41,-12.71,-0.47
17.711,-0.24,-9.89,-2.39
17.77,1.29,-6.63,-1.37
17.825,2.51,-7.85,-3.18
17.981,1.33,-7.92,-3.61
18.026,2.43,-13.57,-3.45
18.084,1.02,-11.26,-8.12
18.112,1.33,-8.08,-7.85
18.407,4.82,-17.34,3.73
18.417,3.14,-11.57,0.47
18.47,0.82,-9.73,-0.59
18.547,-0.75,-7.34,-1.1
18.574,-1.18,-10.67,0.08
18.635,0.27,-10.71,-1.06
18.684,-2.51,-9.96,-0.82
18.736,-0.59,-11.61,0.31
18.777,4.79,-14.47,1.14
18.833,3.49,-9.45,1.88
18.889,5.77,-12.43,0.39
18.942,1.69,-12.59,-1.26
18.986,0.86,-8.16,-1.1
19.037,2.35,-6.83,-2.55
19.084,1.33,-6.83,-2.63
19.155,1.1,-5.37,-2.79
19.219,1.18,-6.2,-3.57
19.245,1.88,-10.59,-4.04
19.298,1.88,-11.49,-4.47
19.357,1.22,-9.38,-7.57
19.406,3.33,-10.87,-4.79
19.455,6.24,-9.57,2
19.509,0.78,-8.98,2.35
19.556,1.14,-5.96,-0.43
19.609,3.77,-10.9,0.86
19.661,1.65,-9.45,1.57
19.717,1.53,-8.9,1.1
19.767,0.31,-9.49,0
19.802,-1.26,-9.1,-0.12
19.869,-0.47,-9.89,-0.35
19.898,-0.47,-10.12,-1.02
19.964,-2.35,-9.85,-0.27
20.044,0.27,-11.3,-0.47
20.054,3.88,-13.57,0.9
20.107,3.65,-10.67,2.51
20.156,5.57,-12.67,0.2
20.208,3.69,-11.02,-0.98
20.269,0.71,-9.92,-1.92
20.321,1.02,-6.75,-1.69
20.372,1.88,-7.77,-2.47
20.513,1.88,-9.77,-3.49
20.567,2,-9.49,-4.08
20.617,1.14,-11.45,-7.22
20.667,3.84,-14.91,-6.98
20.721,5.65,-14.28,1.96
20.781,2.31,-3.3,0.27
20.831,1.14,-6.79,0.35
20.884,3.84,-13.18,1.29
20.928,0.86,-8.71,0
20.975,0.78,-9.41,-0.12
21.131,-0.71,-9.53,-0.24
21.201,0.2,-10.4,-0.98
21.24,-2.51,-9.92,-0.67
21.293,-0.27,-11.85,-0.16
21.324,3.73,-13.53,0.24
21.392,2.9,-12.04,4.51
21.446,5.14,-11.26,-0.16
21.501,5.14,-11.77,0.35
21.552,-0.78,-9.34,-3.22
21.602,1.61,-7.41,-1.69
21.635,1.49,-7.41,-3.18
21.699,1.77,-4.82,-3.73
21.755,0.9,-5.1,-3.53
21.786,1.69,-10.24,-3.88
21.843,3.22,-11.3,-2.82
21.897,0.71,-10.24,-8.67
21.956,1.84,-7.18,-6.16
22.003,6.04,-16.28,4.24
22.058,2.24,-5.53,2.71
22.116,1.41,-3.8,-0.39
22.17,2.67,-13.73,0.63
22.193,-0.35,-9.65,0.16
22.27,0.86,-8.28,-0.04
22.297,0.2,-8.87,-0.51
22.459,0.27,-9.89,-0.55
22.513,-2.43,-10.4,-1.29
22.568,-0.35,-11.34,0.43
22.6,4.59,-12.2,0.39
22.677,6.04,-10.4,2.08
22.704,5.92,-15.73,-0.59
22.755,0.35,-9.14,-3.88
22.829,2,-8.63,-2.39
22.862,-0.04,-7.3,-3.45
22.916,1.18,-5.53,-2.31
22.967,1.26,-3.69,-3.53
23.035,1.84,-6.28,-3.49
23.063,2.08,-13.85,-3.69
23.123,1.18,-11.02,-7.69
23.172,1.29,-7.37,-6.71
23.221,4.79,-20.01,4
23.273,2.47,-6.39,1.18
23.326,0.9,-6.67,-0.12
23.377,2.63,-10.79,0.39
23.418,1.8,-8.12,0.86
23.678,-0.04,-9.06,-0.12
23.686,1.06,-9.77,-0.27
23.72,-2.43,-10.4,-0.9
23.784,-1.41,-11.22,0.08
23.839,2.55,-12.63,0.16
23.883,4.79,-13.26,4.55
23.932,6.35,-13.65,0.71
23.983,1.92,-12.59,-1.96
24.038,-0.47,-8.43,-2.08
24.088,1.84,-6.24,-2.71
24.135,1.26,-5.92,-2.63
24.191,1.57,-3.88,-3.37
24.303,2.16,-5.69,-4.08
24.313,1.88,-12.83,-3.53
24.336,1.45,-11.22,-5.22
24.391,-0.16,-6.28,-7.41
24.448,3.45,-9.1,-6.94
24.5,5.41,-14.67,6.55
24.551,0.71,-5.92,-1.69
24.604,1.37,-8.39,-1.77
24.66,4.2,-12.67,0.94
24.71,-0.12,-8.59,-1.1
24.76,-0.08,-8.98,-0.27
24.812,0.86,-9.34,-0.31
24.864,-1.41,-8.71,-0.75
25.021,-3.65,-9.3,-1.26
25.055,-0.51,-12.04,0.78
25.116,4.55,-15.3,2.75
25.162,4.08,-9.18,1.18
25.214,6.9,-14.04,0.39
25.267,0.31,-11.61,-1.96
25.323,0.63,-7.53,-0.86
25.374,1.92,-6.94,-3.3
25.424,0.47,-6.04,-3.06
25.475,0.31,-3.69,-3.61
25.527,0.98,-6.28,-3.22
25.605,3.18,-12.43,-3.14
25.615,1.92,-12.04,-6.86
25.664,0.08,-4.31,-6
25.724,5.69,-20.01,6.9
25.774,3.41,-9.18,1.57
25.825,1.29,-6.16,-2.43
25.877,1.45,-8.98,-1.18
25.932,1.41,-10.28,2.55
25.99,-0.75,-8.9,-0.27
26.015,1.49,-9.49,0.2
26.092,-0.71,-8.63,-0.86
26.12,-1.06,-9.81,-0.94
26.174,-0.82,-10,-0.27
26.281,-1.96,-9.26,-0.55
26.29,-0.59,-10.98,0
26.33,3.88,-13.38,1.69
26.382,3.02,-11.65,1.06
26.444,7.02,-15.81,0.55
26.476,2.71,-10.9,-2.28
26.532,-0.51,-8.36,-1.65
26.578,1.33,-5.49,-1.84
26.635,0.94,-6.16,-2.31
26.695,1.41,-4.82,-2.86
26.762,1.26,-6.2,-4.63
26.822,1.1,-11.53,-3.96
26.851,1.8,-11.92,-6.75
26.901,1.77,-7.96,-8.39
26.932,4.82,-20.01,-0.86
26.988,2.75,-5.26,-0.16
27.041,0.86,-6.28,-1.26
27.087,0.94,-12.91,0.59
27.139,3.65,-9.3,0.08
27.197,1.92,-8.98,-0.27
27.25,1.22,-9.38,0.71
27.303,0.63,-8.79,0.12
27.353,-1.57,-8.32,-0.43
27.401,-1.37,-9.26,-0.51
27.457,0.16,-10.4,-1.26
27.55,-2.31,-10.79,-2.39
27.561,-1.49,-10.59,0.94
27.607,4.35,-13.96,1.92
27.649,5.53,-11.69,1.37
27.725,5.41,-15.46,0.86
27.755,1.37,-9.85,-1.61
27.806,1.69,-8.39,-1.84
27.866,2,-6.43,-2.39
27.916,1.18,-5.96,-1.49
27.965,0.98,-5.73,-2.98
28.016,1.06,-8.67,-3.88
28.101,0.98,-9.22,-4
28.112,2,-8.32,-4.31
28.165,2.51,-11.41,-5.61
28.217,2.75,-9.38,-5.81
28.264,6,-16.71,4.67
28.321,2.55,-3.18,-0.94
28.377,0.47,-9.85,-1.06
28.426,2.39,-12.04,-0.12
28.481,1.77,-8,0.51
28.533,0.24,-9.02,0.16
28.582,1.06,-9.26,-0.39
28.643,-1.37,-9.18,-0.43
28.692,-0.94,-9.69,-0.35
28.96,0.08,-10,-0.55
28.967,-1.06,-10.12,0.35
28.98,2.2,-14.2,4.51
28.986,4.31,-9.57,0.51
29.028,6.32,-11.77,-0.12
29.089,-0.39,-10.04,-2.82
29.132,0.9,-7.49,-1.06
29.183,1.65,-8.12,-3.61
29.234,1.41,-5.65,-3.65
29.287,0.35,-4.16,-4.08
29.337,0.75,-8.32,-4.04
29.44,3.41,-15.22,-2.75
29.447,1.73,-9.06,-9.45
29.49,2.79,-10.43,-4.47
29.545,5.45,-13.96,1.33
29.599,2.24,-6.86,0.35
29.649,1.61,-7.85,0.24
29.7,2.94,-11.41,0.59
29.758,-0.04,-8.55,-0.12
29.794,0,-8.59,0
29.864,0.04,-9.49,-0.43
29.919,-1.77,-8.87,-0.82
30.024,0.04,-10,-1.06
30.032,-2.04,-9.96,0.12
30.045,-1.45,-10.87,-0.43
30.107,3.49,-14.08,0.67
30.159,4.94,-11.61,3.49
30.204,6.32,-12.83,-1.26
30.252,0.55,-13.18,-2
30.305,-0.55,-7.53,-2.43
30.359,0.94,-6.98,-3.37
30.416,1.73,-5.65,-2.35
30.467,1.96,-3.26,-4.16
30.516,1.8,-6.83,-4.98
30.571,-0.08,-13.38,-3.37
30.625,0.55,-10.75,-7.1
30.697,1.37,-5.73,-8.94
30.725,7.57,-20.01,0.78
30.776,3.37,-7.92,1.92
30.809,0.39,-6.24,-1.18
30.867,2.31,-10.71,0.31
30.919,1.77,-8.67,1.22
30.981,0.51,-8.55,-0.04
31.04,0.47,-8.67,-0.59
31.085,-1.69,-9.57,-0.59
31.14,-1.29,-10.4,-0.55
31.194,1.69,-9.41,-1.61
31.216,-3.33,-9.96,-1.29
31.399,4.08,-9.3,2.04
31.43,6.08,-14.51,-0.43
31.481,2.28,-12.32,-2.16
31.565,0.63,-7.73,-1.29
31.6,1.06,-6.63,-2.9
31.653,1.18,-5.53,-2.86
31.709,1.02,-3.1,-3.61
31.744,1.22,-6.12,-4.12
31.801,1.61,-15.46,-3.57
31.831,2.28,-9.41,-6.67
31.888,4.2,-10.16,-6.39
32.004,4.16,-12.55,3.69
32.02,2.9,-2.79,-0.12
32.043,-0.35,-12.4,0
32.104,2.55,-9.65,-0.98
32.153,0.35,-8.55,0.04
32.212,0.2,-8.63,-0.24
32.241,0.71,-9.14,0.12
32.298,-2.08,-9.18,-0.51
32.358,-0.82,-10.12,-0.2
32.408,-0.51,-9.38,-1.53
32.46,-2.47,-10.2,-0.35
32.513,0.2,-11.53,0.47
32.585,4,-14.44,1.41
32.613,2.9,-10.63,3.02
32.668,6.86,-14.08,-0.71
32.72,1.26,-10.47,-2.51
32.769,1.1,-6.9,-0.67
32.8,2.43,-6.98,-2.55
32.876,2.04,-6.2,-2.51
32.904,0.16,-4.98,-3.8
32.961,0.31,-7.61,-4.67
33.017,0.86,-11.18,-3.49
33.065,2.04,-9.18,-7.06
33.107,4.82,-9.77,-6.55
33.18,4.94,-13.26,4.82
33.229,2,-6.24,0.39
33.308,0.63,-10.32,-1.49
33.317,2.59,-9.96,0.75
33.369,1.14,-8.28,1.02
33.424,1.53,-8.47,0.39
33.478,-0.04,-8.98,0.78
33.534,-1.77,-9.41,-0.39
33.566,-0.78,-10.9,-0.63
33.64,-1.92,-10.12,-0.75
33.668,-2.71,-10.36,-1.18
33.723,0.78,-13.34,0.94
33.776,2.9,-15.02,2.47
33.894,3.73,-9.38,1.65
33.899,7.37,-12.71,0.63
33.946,0.55,-9.89,-1.61
34.245,0.71,-7.02,-0.9
34.269,1.02,-4.12,-4
34.282,1.06,-8.9,-8.24
34.334,2.75,-6.2,-6.51
34.386,5.37,-14.67,3.41
34.439,1.77,-6.43,0.08
34.505,1.8,-7.3,-2
34.582,3.02,-12.16,1.02
34.592,0.43,-9.3,0
34.641,0.63,-8.51,-0.04
34.687,-0.82,-8.36,-0.2
34.743,-2.86,-9.45,-0.78
34.813,-0.35,-9.65,-1.06
34.865,-1.29,-10.63,-0.24
34.89,-1.18,-10.67,-0.63
34.953,2.39,-14.2,0.98
35,4.24,-10.4,3.1
35.054,6.55,-13.3,0.63
35.104,2.86,-10.87,-1.06
35.159,1.06,-8.43,-2.12
35.208,1.88,-6.43,-2.2
35.246,1.29,-6.08,-2.55
35.316,1.02,-3.61,-3.45
35.37,1.57,-5.65,-3.88
35.4,1.77,-13.49,-4.43
35.459,1.8,-10.94,-6.47
35.517,1.96,-7.49,-7.73
35.565,5.41,-18.91,-2.67
35.619,4.2,-5.49,0.55
35.682,0.35,-7.34,-0.55
35.715,2.43,-11.1,-0.16
35.765,1.73,-9.3,1.22
35.84,-0.55,-8.71,-0.04
35.861,1.49,-9.18,0.12
35.918,-0.24,-8.83,-0.12
35.976,-0.86,-9.77,-0.59
36.027,-0.47,-9.65,-0.63
36.083,-2.47,-10.12,0.04
36.132,-0.55,-11.3,-0.08
36.178,5.65,-13.38,1.57
36.236,4.79,-10.24,2.94
36.269,7.02,-15.46,0.27
36.323,2.16,-10.63,-1.92
36.373,1.61,-8.47,-1.61
36.433,1.37,-7.41,-2.94
36.509,0.67,-5.1,-2.9
36.532,1.06,-2.63,-3.22
36.583,1.18,-5.1,-3.45
36.636,2.12,-14.59,-4.12
36.682,3.06,-11.92,-6.28
36.733,2.16,-6.12,-8.16
36.794,6.79,-20.01,0.08
36.847,5.18,-10.12,2.82
36.903,-0.35,-7.73,0.51
36.957,2.51,-7.3,-0.24
36.983,4.86,-10.32,3.33
37.04,0.31,-9.69,0.86
37.105,-0.16,-9.57,0.2
37.158,-2.08,-8.79,-1.29
37.19,-1.29,-9.38,-0.78
37.252,0.31,-9.45,-0.9
37.3,-1.84,-9.89,0.59
37.356,0.51,-11.53,0.12
37.406,5.18,-13.42,1.53
37.456,4.82,-12.36,3.22
37.512,6.04,-13.73,-0.12
37.561,3.06,-10.71,-0.59
37.618,1.14,-8.43,-1.77
37.692,2.24,-5.81,-1.84
37.702,1.61,-5.88,-2.86
37.76,1.8,-4.16,-3.92
37.818,0.86,-4.82,-3.69
37.865,1.33,-11.38,-3.65
37.919,3.3,-12.16,-6.86
37.964,3.1,-8.12,-8.47
38.024,5.02,-17.89,6.67
38.081,2.12,-5.57,0.67
38.115,0.47,-7.53,0.24
38.169,3.06,-11.1,0
38.221,1.84,-8.51,0.55
38.27,-0.75,-9.57,-0.16
38.438,-1.14,-8.94,-0.51
38.488,0.51,-10.59,-1.02
38.535,-4.16,-9.38,-2
38.569,0.51,-11.61,-0.55
38.622,2.59,-12.47,1.41
38.67,6.28,-11.1,2.47
38.726,7.53,-14.71,0.94
38.781,2.47,-12.71,-4
38.833,1.22,-10.08,-1.84
38.887,1.53,-5.69,-3.14
38.976,0.63,-3.69,-1.73
38.983,1.33,0.47,-3.41
39.031,0.75,-4.43,-4
39.075,3.26,-17.06,-4.94
39.13,4.28,-7.49,-9.53
39.187,5.26,-14.44,2
39.239,2.31,-6.12,-0.2
39.518,0.24,-10.04,0.59
39.541,-0.2,-9.65,-0.31
39.546,1.02,-8.36,0.04
39.551,-1.02,-7.65,0.12
39.583,-1.02,-9.06,-0.43
39.678,-0.31,-9.96,-0.67
39.703,-2.39,-11.02,-0.43
39.739,2.82,-13.45,0.27
39.788,3.49,-15.65,4.28
39.843,4.43,-8.71,1.26
39.894,7.53,-13.53,0.43
39.944,-0.47,-10.94,-2.51
39.997,2.35,-7.3,-3.02
40.055,2.04,-6.43,-2.94
40.105,0.31,-3.88,-2.51
40.16,1.06,-2.82,-3.69
40.213,1.96,-10.87,-4.79
40.352,8.24,-20.01,-3.02
40.406,2.63,-6.32,-0.63
40.471,-0.2,-7.3,-2.59
40.521,2.55,-13.38,0.2
40.578,1.96,-9.06,-0.12
40.608,1.02,-8.51,-1.73
40.663,-0.2,-8.63,-0.78
40.717,-0.71,-6.9,0.16
40.772,-0.59,-8.04,-0.12
40.822,0.31,-9.14,-1.45
40.874,-1.53,-11.45,-2.28
40.925,1.41,-12.47,-0.78
40.961,3.69,-14.12,1.92
41.025,4.82,-12.98,1.61
41.084,5.81,-13.1,-0.98
41.133,0.59,-10.47,-4.16
41.185,1.57,-8.55,-1.96
41.215,0.12,-4.94,-2.86
41.271,1.18,-3.84,-2.35
41.325,2.86,-2.04,-3.77
41.38,2.47,-10.4,-5.1
41.429,1.14,-11.18,-3.73
41.485,0.86,-10.63,-9.41
41.539,3.53,-18.51,1.1
41.633,3.73,-5.26,-3.84
41.642,-3.33,-15.42,-1.18
41.694,4.79,-12.59,-0.39
41.746,0.78,-6.16,-1.18
41.803,0.39,-8.67,-1.06
41.831,0.16,-8.94,0.43
41.885,-2.94,-6.47,-0.94
41.938,-0.63,-9.38,-0.55
42.009,-1.29,-9.02,-0.27
42.032,0.27,-11.34,-0.75
42.088,2.59,-15.3,1.14
42.147,4.04,-15.38,5.73
42.302,-1.53,-10.79,-3.02
42.341,2.39,-6.16,-2.39
42.405,1.61,-4.43,-3.3
42.458,0.12,-3.02,-3.14
42.507,1.26,-2.59,-3.96
42.558,3.22,-15.26,-3.96
42.612,0.12,-9.26,-6.79
42.661,0.55,-6,-8.08
42.713,5.14,-13.73,0.9
42.747,1.88,-7.53,-2.08
42.866,0.51,-12.71,0
42.876,4.04,-9.92,-1.65
42.9,1.96,-7.1,-0.12
42.956,-0.2,-9.18,-0.43
43.009,0.86,-8.67,-0.24
43.084,-0.86,-7.77,-0.63
43.114,-0.82,-8.9,-0.47
43.155,0.27,-8.9,0.08
43.211,-2.04,-10.24,0.47
43.26,5.65,-15.73,1.02
43.322,2.59,-14.87,4.86
43.38,7.45,-11.77,0.67
43.433,6.32,-12.04,0.55
43.537,0.16,-9.06,-1.45
43.545,2.86,-6.83,-2.2
43.563,2.31,-5.96,-1.8
43.621,1.06,-3.96,-2.67
43.681,0.39,-3.8,-4.16
43.734,1.57,-12.59,-4.47
43.779,3.18,-11.53,-5.26
43.833,3.77,-7.14,-10.79
43.883,6.86,-13.49,-1.61
43.935,2.67,-7.81,-2.39
43.994,-0.12,-10.94,-0.12
44.039,2.86,-11.73,-0.94
44.125,2.35,-7.14,-1.18
44.135,-0.04,-8.36,-0.04
44.194,0.39,-9.06,-0.04
44.246,-1.49,-8.24,-0.82
44.278,-1.77,-8.98,-1.02
44.363,0.27,-9.34,0
44.38,-1.14,-10.2,-0.35
44.429,2.51,-14.55,1.65
44.504,4.47,-15.38,6.04
44.533,5.88,-11.57,1.1
44.802,6.71,-13.1,0.78
44.81,-1.02,-10.94,-2.47
44.836,0.04,-3.18,-4.59
44.895,1.92,-13.1,-2.94
44.945,2.12,-8.98,-7.34
44.995,6.79,-14.32,-5.14
45.049,4.43,-10.4,-2.98
45.101,-0.39,-10.08,-2.08
45.154,0.75,-12.24,-0.98
45.199,2.63,-10.59,-1.22
45.254,1.1,-7.37,-1.29
45.313,-0.31,-8.75,-0.27
45.376,0,-7.61,-0.59
45.401,-0.16,-7.88,-0.63
45.455,0.71,-9.77,-0.39
45.513,-1.18,-10,0.67
45.564,0.08,-10.98,0.59
45.613,3.18,-15.46,4.9
45.654,3.61,-13.26,3.8
45.711,7.3,-13.53,-0.04
45.769,4.12,-12.94,0.86
45.823,-0.24,-9.49,-1.37
45.867,2.31,-6.59,-2.08
45.908,1.37,-4.43,-2.55
45.97,0.35,-2.39,-3.14
46.023,0.39,-5.14,-4.24
46.097,1.22,-15.3,-3.57
46.124,2.71,-9.38,-7.02
46.174,5.96,-18.87,-5.14
46.231,4.08,-6.16,-3.8
46.284,-1.29,-6.51,-1.88
46.316,1.18,-15.49,0.43
46.379,2.82,-9.53,-0.86
46.433,1.37,-8,0.24
46.48,1.73,-10.16,0.27
46.534,1.14,-9.53,-0.16
46.586,-1.37,-7.85,-0.24
46.673,-0.71,-6.67,-1.8
46.692,-0.35,-9.96,0.47
46.73,-2.28,-9.81,-1.06
46.784,-0.55,-11.57,0.67
46.838,7.41,-14.59,2.24
46.888,2.43,-12.4,2.98
46.944,7.18,-13.93,0.04
46.991,3.61,-13.93,-0.59
47.042,1.06,-9.77,-2.39
47.093,1.57,-7.96,-3.14
47.147,0.43,-4.86,-2.47
47.207,1.41,-2.59,-3.57
47.259,1.45,-6.83,-4.2
47.282,2.16,-11.41,-3.26
47.389,1.61,-9.02,-5.81
47.398,-0.12,-5.14,-8.24
47.45,8.75,-20.01,-0.47
47.511,2.55,-7.45,-0.12
47.559,0.55,-6.08,-1.77
47.61,2.75,-12.67,0.16
47.664,2.08,-8,1.14
47.72,0,-7.77,-0.43
47.753,1.84,-9.14,-0.2
47.803,-1.33,-8.83,-0.86
47.862,-1.69,-8.79,-1.14
47.915,0.2,-9.61,-1.26
47.977,-1.29,-9.18,-1.26
48.009,1.06,-11.92,0.71
48.055,2.98,-14.83,2.67
48.108,4.04,-10.63,2.24
48.16,7.53,-13.1,-0.35
48.224,2,-13.02,-0.71
48.278,0.39,-9.69,-1.26
48.33,1.77,-7.49,-2.2
48.355,0.82,-4.43,-3.61
48.431,0.63,-3.1,-3.41
48.459,0.16,-5.49,-4.31
48.525,2.67,-15.61,-3.33
48.577,2.24,-6.28,-8.59
48.665,7.34,-20.01,-6.43
48.675,2.12,-7.65,-0.59
48.737,-0.59,-7.06,-2.35
48.763,2.04,-14.67,-0.63
48.822,2.71,-8.71,0.12
48.872,0.31,-8.08,-0.39
48.922,0.39,-8.36,-0.16
48.979,-0.43,-8.51,-0.59
49.033,-1.33,-8.67,-1.02
49.09,0.12,-8.67,0.24
49.129,-2.31,-9.1,-1.61
49.175,0.35,-12.51,-0.12
49.242,2.59,-15.97,3.53
49.272,5.41,-11.18,1.49
49.348,7.88,-12.67,1.18
49.378,1.29,-11.89,-2.12
49.437,0.51,-9.02,-1.69
49.482,1.41,-7.34,-3.41
49.538,0.59,-4.86,-2.94
49.59,0.86,-3.06,-3.61
49.635,1.18,-6.86,-3.45
49.691,2.75,-12.79,-3.61
49.748,0.9,-8.24,-6.63
49.804,3.33,-9.49,-7.57
50.082,5.02,-10.04,-0.51
50.092,0.9,-6.59,-1.18
50.102,-0.2,-13.38,2.63
50.127,5.37,-9.61,-1.84
50.161,0.63,-8.43,-0.71
50.216,-1.96,-8.36,-1.1
50.242,-1.02,-10.12,-0.31
50.302,-0.47,-8.63,-1.88
50.36,-1.77,-9.3,-0.63
50.404,0.78,-11.61,0.04
50.46,3.02,-14.12,0.67
50.544,4.67,-12.47,3.77
50.554,7.92,-13.57,0.55
50.606,2.2,-13.18,-3.06
50.667,0.98,-8.55,-1.88
50.723,1.45,-6.08,-2.35
50.76,0.71,-4.94,-2.51
50.811,1.53,-2.67,-3.02
50.86,1.49,-5.65,-5.06
50.914,2.2,-16.36,-2.28
50.964,1.29,-8.79,-8.08
51.014,7.1,-14.08,-7.45
51.073,3.61,-8.9,1.53
51.13,0.63,-7.77,-2.35
51.239,1.65,-12.87,0.2
51.251,3.41,-8.98,0.43
51.274,1.69,-8.12,0.16
51.322,0.98,-9.02,0.12
51.38,-0.12,-8.59,0.27
51.446,-1.73,-7.96,-0.82
51.477,-0.39,-9.85,-1.14
51.524,-3.02,-10.2,-0.08
51.572,-1.37,-11.1,-1.14
51.626,2.67,-14,0.39
51.675,4.51,-13.1,4.9
51.727,8.24,-12.94,0.31
51.781,2.43,-13.38,-1.29
51.853,-0.39,-9.1,-1.69
51.883,2.31,-6.28,-2.08
51.933,0.98,-5.02,-3.14
51.983,1.49,-3.18,-4.2
52.045,0.67,-5.1,-4.55
52.094,1.73,-16.2,-2.43
52.146,2.39,-8.79,-8
52.197,4.75,-7.37,-6.24
52.247,5.14,-10.2,2.39
52.299,0.2,-7.57,-3.1
52.352,1.14,-13.22,-0.63
52.416,3.96,-9.96,0.94
52.45,1.77,-9.02,-0.39
52.49,0.47,-8.16,0.12
52.562,-0.78,-7.45,-0.27
52.59,-1.57,-7.02,-1.06
52.669,0.59,-9.14,-0.63
52.698,-1.65,-11.22,0.67
52.753,-2.2,-11.1,-0.16
52.807,3.73,-14.16,-0.47
52.848,3.37,-12.55,4.59
52.904,7.69,-12.28,0.9
52.955,3.88,-12.83,0.35
53.016,0.75,-11.22,-3.73
53.092,1.88,-9.38,-4.28
53.101,0.86,-7.18,-2.12
53.169,0.47,-2.35,-3.06
53.217,0.71,-2.51,-3.18
53.272,1.84,-8.43,-3.41
53.325,3.06,-13.89,-4.08
53.374,3.1,-7.18,-8.59
53.422,6.79,-19.69,-4.31
53.474,5.3,-5.53,-2.16
53.523,1.14,-6.59,-2.12
53.576,2.98,-13.73,1.26
53.632,2.51,-9.1,-0.75
53.683,-0.16,-6.63,-0.98
53.719,0.55,-8.59,0.04
53.791,0.67,-9.18,-0.08
53.814,-1.1,-8.59,-0.67
53.893,-0.67,-8.67,-1.33
53.926,0.55,-9.89,-0.24
53.975,-2.31,-10.24,-0.2
54.031,1.61,-12.67,0.71
54.08,3.96,-15.26,4.79
54.136,5.88,-10.36,-0.04
54.189,7.3,-14.24,1.45
54.235,0.82,-11.96,-3.41
54.286,2.24,-6.63,-1.1
54.373,2.39,-5.65,-2.67
54.383,1.02,-3.92,-3.02
54.434,0.75,-1.88,-3.73
54.48,0.98,-7.85,-4.79
54.532,3.53,-15.97,-2.9
54.604,2.47,-6.28,-9.57
54.629,7.18,-19.85,1.8
54.703,2.39,-6,-1.02
54.755,-0.75,-11.22,-0.71
54.809,2.59,-10.08,-1.53
54.857,1.49,-7.45,-0.43
54.892,0.2,-9.45,-0.27
54.951,1.45,-8.04,-0.04
55.038,0,-8.47,-0.86
55.053,-1.29,-10.32,-1.18
55.097,-1.65,-8.28,-0.55
55.371,-1.14,-10.94,1.26
55.399,0.04,-8.71,-3.57
55.472,3.61,-6.83,-2.43
55.519,1.26,-5.33,-3.3
55.572,1.26,-3.02,-3.65
55.619,0.27,-3.37,-3.3
55.716,2.35,-12.59,-4.75
55.729,5.06,-12.71,-5.45
55.773,4.75,-11.49,-6.79
55.804,4.2,-7.77,-2.47
55.884,0.2,-9.18,-1.65
55.914,2.47,-11.65,1.02
55.959,4.24,-8.67,-0.71
56.029,1.65,-7.77,-0.35
56.076,0.75,-9.65,0.43
56.128,-0.08,-8.63,0.2
56.158,-0.82,-8.59,-1.22
56.215,-0.24,-8.47,-0.9
56.289,-1.26,-10.2,-0.08
56.315,0.82,-11.61,-0.98
56.37,4.94,-14.47,2.55
56.421,5.49,-11.41,1.33
56.478,6.2,-12.43,0.08
56.531,0.12,-10.94,-2.63
56.592,1.49,-8,-1.45
56.622,0.35,-8.75,-2.75
56.679,2.04,-4.82,-3.1
56.736,2,-3.57,-3.77
56.791,0.94,-8.24,-4.55
56.846,2.04,-12.83,-3.22
56.936,1.33,-8.75,-8.36
56.961,5.73,-16.59,-6.55
56.998,3.65,-7.49,-1.8
57.049,1.45,-6.08,-0.82
57.077,2,-11.1,0.78
57.133,3.22,-9.14,-0.39
57.183,0.51,-7.96,-0.12
57.234,0.59,-8.75,0
57.285,0.67,-9.34,-0.47
57.359,-1.53,-9.06,-0.86
57.386,0.04,-9.49,-0.47
57.442,-2.47,-10.32,0.75
57.492,1.53,-11.1,0.08
57.546,4.08,-15.89,3.14
57.589,4.39,-9.18,2.59
57.647,7.45,-13.57,-0.35
57.725,0.27,-11.22,-1.22
57.757,-0.24,-6.94,-2
57.794,2.08,-6.04,-2.9
57.844,2.12,-5.61,-3.14
57.895,1.88,-3.84,-3.57
57.957,1.29,-7.02,-4.79
58.011,1.96,-13.02,-2.79
58.063,2.86,-10.83,-6.75
58.116,4.35,-11.49,-6.51
58.159,3.65,-10.87,0.51
58.245,2.24,-5.49,-0.9
58.255,1.22,-11.96,-0.16
58.31,3.57,-9.89,-0.08
58.361,1.69,-7.88,-0.16
58.413,1.06,-10,0.35
58.454,0.63,-9.26,-0.59
58.51,-1.84,-8.79,-0.94
58.569,-1.37,-9.53,-1.26
58.627,0.04,-9.77,-1.33
58.678,-2.47,-9.26,-0.55
58.734,1.65,-12.55,1.45
58.763,4.55,-14.55,4.2
58.845,4.86,-12.51,0.82
58.872,6.67,-14.63,-0.08
58.928,-0.9,-11.02,-4.71
58.975,1.41,-7.57,-1.45
59.033,0.63,-6.98,-2.75
59.067,0.59,-3.84,-2.47
59.143,0.98,-1.77,-3.22
59.2,1.96,-8.75,-4.75
59.226,3.84,-15.3,-3.06
59.279,3.57,-7.18,-8.94
59.34,6.63,-16.2,1.8
59.393,3.18,-6.43,-1.65
59.445,-0.24,-11.38,0.12
59.536,2.55,-10.4,-0.43
59.545,2.75,-7.34,-0.27
59.587,0.59,-9.14,-0.51
59.639,0.9,-9.3,-0.27
59.695,-0.12,-8.51,-0.47
59.728,-0.2,-9.14,-0.67
59.797,-0.24,-9.92,-0.71
59.859,-0.51,-9.1,0.59
59.893,0.08,-11.38,0.04
59.94,3.65,-13.96,3.53
59.996,4.86,-13.85,3.61
60.113,7.34,-10.36,-0.82
60.123,3.88,-12.24,0.12
60.145,0,-10.51,-2.51
60.198,1.84,-7.96,-2.55
60.245,1.33,-7.26,-3.33
60.293,1.14,-4,-3.26
60.346,0.86,-3.84,-3.33
60.648,1.73,-10.71,-2.94
60.749,1.77,-8.67,-0.35
60.76,3.65,-11.85,0.86
60.826,1.77,-9.14,-0.35
60.856,2.31,-9.26,0.04
60.916,2.2,-9.65,-0.71
60.963,0.67,-9.89,-1.06
61.027,0.98,-10.43,-1.61
61.054,0.71,-9.26,-1.61
61.135,-0.78,-9.85,-1.1
61.165,1.26,-9.1,-0.55
61.217,2.59,-9.92,-0.86
61.274,2.39,-11.02,-0.12
61.33,4.2,-10.24,-0.12
61.375,4.31,-10.04,-0.35
61.542,3.65,-9.57,-1.26
61.592,3.77,-9.1,-1.41
61.623,4,-9.22,-0.86
61.678,3.65,-9.45,-1.92
61.729,3.02,-9.18,-2.35
61.796,2.71,-9.02,-2.67
61.825,2.51,-8.87,-3.14
61.895,2.35,-8.75,-3.8
61.946,1.92,-8.12,-4.04
61.994,1.57,-8.59,-3.92
62.057,1.69,-8.87,-3.57
62.081,2.39,-12.16,-2.82
62.142,2.16,-7.81,-2.67
62.196,2.51,-8.63,-0.94
62.257,2.43,-10.08,0.82
62.281,1.61,-10.28,0.67
62.361,2.55,-10.55,0.71
62.394,1.45,-10.59,-0.27
62.446,0.43,-10.16,-0.39
62.495,0.51,-9.81,-0.55
62.556,1.06,-9.69,-0.86
62.592,0.98,-10.08,-0.75
62.676,0.94,-10.75,-0.04
62.703,0.94,-10.2,-0.71
62.751,2.2,-9.73,-0.75
62.801,2.59,-9.45,-0.27
62.854,2.98,-9.38,0.2
62.899,2.98,-8.98,-0.35
62.953,3.14,-9.57,-0.82
63.011,3.1,-9.96,-0.86
63.066,3.33,-9.73,-0.59
63.097,3.18,-9.22,-0.71
63.155,2.94,-9.41,-0.9
63.209,2.24,-9.1,-1.06
63.354,2.67,-9.45,-0.86
63.407,3.18,-9.85,-1.14
63.456,2.9,-9.81,-0.98
63.51,2.63,-9.53,-1.06
63.557,2.59,-9.61,-0.94
63.61,2.04,-9.49,-1.14
63.662,2.55,-9.65,-0.82
63.713,2.82,-9.34,-0.71
63.769,3.14,-9.53,-0.39
63.822,3.1,-9.49,-0.43
63.873,2.71,-9.41,-0.59
63.98,2.59,-9.61,-0.67
63.989,2.31,-9.77,-0.86
64.03,2.12,-9.73,-0.9
64.063,1.92,-9.69,-0.94
64.12,1.61,-9.81,-1.02
64.179,1.61,-9.89,-0.82
64.217,1.84,-9.69,-0.59
64.27,2.08,-9.73,-0.35
64.319,2.51,-9.65,-0.12
64.394,2.47,-9.77,-0.08
64.43,2.59,-9.69,-0.12
64.485,2.55,-9.69,0.04
64.541,2.51,-9.61,-0.12
64.592,2.55,-9.69,-0.12
64.67,2.31,-9.81,-0.24
64.693,2.35,-10,-0.12
64.742,2.28,-9.92,-0.08
64.787,2.2,-9.77,0
64.841,2.28,-9.73,0.16
64.893,2.28,-9.81,0
64.952,2.16,-9.85,0
65.007,2.16,-9.85,-0.08
65.053,2.08,-9.81,-0.04
65.11,2.04,-9.69,-0.12
65.142,1.92,-9.77,-0.2
65.201,2,-9.73,-0.12
65.308,2.04,-9.85,-0.2
65.315,2.04,-9.77,-0.16
65.361,2.12,-9.73,-0.16
65.41,2.12,-9.77,-0.24
65.465,2.16,-9.85,-0.16
65.514,2.12,-9.77,-0.35
65.549,2.04,-9.73,-0.43
65.615,2.04,-9.73,-0.24
65.659,2.04,-9.73,-0.31
65.919,2.28,-9.85,-0.35
65.924,2.24,-9.81,-0.31
65.94,2.24,-9.73,-0.31
65.954,2.2,-9.77,-0.27
66.007,2.31,-9.65,-0.39
66.054,2.24,-9.77,-0.27
66.126,2.31,-9.85,-0.27
66.175,2.2,-9.73,-0.35
66.226,2.16,-9.57,-0.47
66.265,2.31,-9.77,-0.43
66.313,2.31,-9.81,-0.39
66.365,2.28,-9.69,-0.43
66.42,2.28,-9.65,-0.47
66.571,2.31,-9.69,-0.59
66.641,2.2,-9.69,-0.43
66.69,2.31,-9.73,-0.43
66.718,2.39,-9.73,-0.51
66.77,2.31,-9.73,-0.51
66.854,2.31,-9.73,-0.51
66.883,2.24,-9.69,-0.59
66.944,2.31,-9.77,-0.63
66.988,2.24,-9.73,-0.55
67.025,2.35,-9.69,-0.63
67.127,2.43,-9.69,-0.47
67.138,2.31,-9.61,-0.55
67.18,2.31,-9.73,-0.71
67.249,2.47,-9.65,-0.55
67.299,2.55,-9.65,-0.51
67.334,2.47,-9.69,-0.55
67.404,2.39,-9.73,-0.67
67.43,2.47,-9.65,-0.67
67.483,2.47,-9.65,-0.63
67.534,2.47,-9.53,-0.86
67.586,2.47,-9.69,-0.71
67.639,2.31,-9.57,-0.78
67.689,2.47,-9.73,-0.67
67.81,2.59,-9.69,-0.67
67.816,2.63,-9.49,-0.63
67.838,2.55,-9.65,-0.75
67.894,2.51,-9.73,-0.67
67.947,2.43,-9.69,-0.67
68.001,2.39,-9.69,-0.75
68.055,2.28,-9.65,-0.63
68.114,2.43,-9.65,-0.71
68.155,2.51,-9.69,-0.59
68.199,2.55,-9.65,-0.63
68.257,2.55,-9.73,-0.51
68.315,2.43,-9.69,-0.59
68.354,2.43,-9.77,-0.43
68.477,2.28,-9.73,-0.59
68.49,2.2,-9.73,-0.67
68.524,2.2,-9.69,-0.67
68.576,2.24,-9.73,-0.63
68.605,2.28,-9.73,-0.55
68.685,2.2,-9.65,-0.51
68.713,2.24,-9.69,-0.59
68.765,2.31,-9.81,-0.39
68.813,2.28,-9.89,-0.47
68.863,2.31,-9.73,-0.43
68.914,2.04,-9.69,-0.59
68.964,2.08,-9.73,-0.59
69.032,2.24,-9.69,-0.47
69.183,2.08,-9.69,-0.86
69.227,2.08,-9.81,-0.59
69.285,2.28,-9.69,-0.78
69.331,2.51,-9.77,-0.51
69.386,2.35,-9.77,-0.55
69.435,2.43,-9.73,-0.51
69.492,2.39,-9.69,-0.47
69.544,2.28,-9.77,-0.47
69.593,2.24,-9.73,-0.51
69.63,2.12,-9.69,-0.59
69.714,2.08,-9.73,-0.59
69.745,2.04,-9.77,-0.63
69.781,2.12,-9.77,-0.63
69.835,2.24,-9.73,-0.67
69.883,2.31,-9.57,-0.63
69.935,2.31,-9.73,-0.55
69.983,2.47,-9.77,-0.51
70.033,2.35,-9.73,-0.67
70.092,2.16,-9.69,-0.67
70.141,2.08,-9.69,-0.67
70.201,2.2,-9.65,-0.67
70.254,2.24,-9.81,-0.67
70.308,2.24,-9.73,-0.55
70.401,2.24,-9.73,-0.67
70.41,2.16,-9.65,-0.59
70.459,2.28,-9.69,-0.55
70.514,2.2,-9.69,-0.67
70.546,2.24,-9.73,-0.63
70.607,2.16,-9.69,-0.67
70.661,2.24,-9.65,-0.51
70.708,2.24,-9.73,-0.51
70.76,2.2,-9.81,-0.51
70.805,2.24,-9.65,-0.67
70.864,2.16,-9.77,-0.51
70.912,2.2,-9.69,-0.47
70.964,2.28,-9.57,-0.55
71.2,2.24,-9.73,-0.59
71.21,2.24,-9.77,-0.55
71.257,2.2,-9.77,-0.47
71.314,2.28,-9.81,-0.43
71.368,2.12,-9.69,-0.59
71.43,2.08,-9.77,-0.59
71.477,2.12,-9.77,-0.51
71.537,2.16,-9.81,-0.43
71.562,2.28,-9.65,-0.39
71.615,2.24,-9.69,-0.47
71.7,2.04,-9.73,-0.51
71.728,2,-9.69,-0.63
71.775,2.08,-9.77,-0.71
71.835,2.08,-9.77,-0.59
71.888,2.43,-9.65,-0.55
71.942,2.75,-9.57,-0.27
71.979,2.59,-9.77,-0.63
72.034,2.51,-9.85,-0.55
72.092,2.35,-9.61,-0.55
72.145,2.35,-9.69,-0.55
72.179,2.31,-9.73,-0.63
72.274,2.24,-9.61,-0.59
72.31,2.16,-9.73,-0.51
72.338,2.08,-9.73,-0.59
72.385,2.28,-9.77,-0.51
72.433,2.2,-9.57,-0.63
72.488,2.31,-9.61,-0.71
72.547,2.39,-9.61,-0.86
72.606,2.51,-9.61,-0.86
72.633,2.43,-9.53,-0.78
72.705,2.24,-9.61,-0.9
72.738,2.28,-9.61,-0.98
72.791,2.24,-9.65,-0.98
72.842,2.31,-9.65,-0.94
72.933,2.31,-9.65,-0.9
72.962,2.2,-9.57,-0.78
73.004,2.55,-9.77,-0.86
73.056,2.08,-9.45,-0.86
73.105,2.28,-9.73,-0.94
73.16,2.24,-9.53,-1.06
73.214,2.47,-9.65,-0.78
73.267,2.39,-9.73,-0.82
73.31,2.55,-9.53,-0.94
73.352,2.51,-9.73,-0.82
73.405,2.47,-9.61,-0.78
73.454,2.67,-9.65,-0.71
73.509,2.63,-9.57,-0.75
73.577,2.55,-9.57,-0.67
