Time [sec],ACC X,ACC Y,ACC Z
0.005,1.1,-9.61,-0.27
0.068,1.69,-10.16,0.71
0.118,3.53,-8.63,-1.37
0.167,-1.33,-12.51,-2.43
0.198,-0.12,-8.36,-2.2
0.323,0.94,-8.67,-2.28
0.328,0.24,-8.55,-2.2
0.361,-0.51,-8.83,-2.59
0.416,0.16,-8.71,-2.35
0.467,1.02,-9.18,-2.43
0.522,0.67,-9.89,-2.79
0.571,1.33,-9.34,-2.94
0.619,5.18,-10.04,-1.84
0.673,4.12,-14.08,0.04
0.728,1.8,-7.34,-0.67
0.787,2.63,-10.83,1.14
0.82,3.53,-10.2,0.12
0.875,1.14,-10.08,0.59
0.961,0.78,-8.04,0.47
0.967,-0.16,-8.51,0.35
1.04,0.39,-9.14,0.16
1.096,0.04,-9.3,-0.2
1.122,0.04,-9.26,0.2
1.175,0.98,-9.26,0.78
1.227,1.22,-9.96,1.53
1.28,-0.71,-10.43,0.47
1.331,0.86,-11.61,-0.55
1.384,0.78,-13.06,1.92
1.442,3.45,-12.12,2.47
1.495,1.73,-7.73,-0.51
1.541,2.71,-12.28,2.31
1.683,1.1,-7.96,-0.08
1.737,1.53,-7.69,-0.67
1.789,0.47,-8.51,-1.41
1.847,0.08,-8.87,-1.73
1.899,1.22,-10.9,-1.41
1.96,0.35,-11.96,-2.24
2.009,2.28,-13.57,-0.16
2.061,4.39,-11.92,-0.27
2.114,1.61,-6.9,0.63
2.166,0.82,-10.94,1.02
2.242,2.08,-11.02,0.75
2.253,1.41,-8.24,0.39
2.298,0.55,-8.2,0.9
2.353,-0.08,-9.22,0.59
2.401,0.35,-9.53,0.27
2.452,0.12,-9.18,0.71
2.505,0.51,-9.3,0.24
2.56,0.82,-10.75,1.14
2.615,-0.35,-10.16,-0.04
2.671,2.04,-12.59,-0.82
2.719,0.59,-12.4,2.98
2.753,2.75,-10.59,2.08
2.806,2.55,-10.87,1.53
2.965,0.71,-8.16,-0.16
3.024,0.94,-7.88,-0.59
3.317,0.59,-8.32,-0.75
3.326,0.27,-8.67,-2.24
3.335,0.63,-9.34,-2.31
3.381,0.67,-8.79,0.04
3.438,0.86,-10.28,1.77
3.497,2.31,-9.85,-0.35
3.521,1.06,-11.53,1.1
3.573,0.08,-8.32,1.18
3.622,0.67,-8.43,0.51
3.681,0.78,-9.14,0.2
3.729,0.12,-8.79,0.08
3.79,-0.67,-9.14,-0.43
3.824,0.51,-9.81,0.67
3.882,0.39,-9.73,1.45
3.932,0.12,-10,-1.29
3.987,0.78,-13.65,0.98
4.043,2.75,-11.38,2.24
4.095,1.69,-11.38,0.51
4.154,2.82,-11.85,1.92
4.233,0.63,-9.49,0.51
4.262,0.04,-7.3,-0.59
4.299,0.78,-7.34,-0.82
4.357,1.45,-7.81,-0.78
4.405,0.39,-7.34,-0.67
4.438,-0.43,-8.51,-2.04
4.489,0.04,-11.57,-0.9
4.546,0.55,-11.02,-2.28
4.603,2.08,-11.57,-3.3
4.657,5.92,-14,3.14
4.706,1.77,-7.85,1.22
4.762,1.84,-11.34,0.67
4.824,1.02,-10.47,0.63
4.846,-0.12,-9.41,1.69
4.9,0.2,-7.69,0.12
4.959,0,-8.36,0.24
5.007,0.27,-8.87,0
5.06,-0.08,-8.75,-0.27
5.111,-0.43,-9.73,-0.08
5.165,0.67,-9.06,1.18
5.224,-0.9,-9.96,-0.71
5.25,1.02,-11.14,-0.63
5.306,-0.9,-14.55,2.71
5.365,1.77,-10.98,0.39
5.414,3.1,-13.06,1.45
5.478,2.47,-12.2,0.59
5.538,-0.9,-8.79,-0.43
5.557,0.35,-6.24,-0.04
5.614,0.35,-7.61,-1.14
5.674,0.08,-7.26,-1.33
5.729,-0.2,-7.18,-1.33
5.782,0.16,-10.08,-1.22
5.835,1.88,-14.87,-0.43
5.863,-1.14,-10.87,-4.94
5.918,5.88,-17.14,3.8
5.974,2.63,-7.88,1.41
6.082,0.82,-11.02,1.06
6.095,0.55,-10.2,0.39
6.143,1.37,-9.65,0.35
6.172,-0.47,-7.41,1.02
6.24,-0.98,-7.73,0.55
6.296,0.16,-9.14,-0.04
6.342,-0.35,-8.75,0.08
6.398,-0.2,-9.26,0.24
6.45,0.16,-10.16,0.9
6.477,-1.26,-10.4,0.82
6.528,-0.75,-12.24,0.98
6.58,1.8,-13.65,4.04
6.632,2.16,-9.89,1.06
6.796,0.51,-8,-0.31
6.835,0.63,-6.98,-0.2
6.893,-0.08,-6.86,-0.75
6.946,0.71,-6.71,-0.24
6.998,0.27,-7.61,-1.1
7.051,0.08,-10.63,-1.29
7.095,0.04,-12.32,-0.98
7.151,-0.31,-10,-3.37
7.192,3.45,-16.91,0.9
7.263,2.43,-10.51,-3.18
7.345,0.98,-8.16,1.73
7.354,2.31,-10.87,1.45
7.397,0.63,-10.67,1.57
7.448,-0.35,-8.51,0.43
7.519,-1.1,-7.49,-0.24
7.542,-0.71,-8.28,0.63
7.601,0,-9.53,0.08
7.651,-0.55,-8.2,-0.35
7.704,0,-9.1,1.41
7.755,0.04,-9.92,1.69
7.812,-1.69,-10.71,0.47
7.866,-2.51,-13.34,2.2
7.92,2.39,-13.18,3.53
7.952,1.88,-9.65,1.33
8.021,2.79,-12.47,3.33
8.076,-0.86,-11.96,0.16
8.137,0.75,-7.92,-0.24
8.182,0.04,-6.16,0.16
8.231,0.16,-7.34,-0.78
8.262,0,-7.26,-0.82
8.318,-0.78,-8.47,-1.88
8.598,-0.75,-11.06,-1.06
8.607,0.04,-12,-2.31
8.634,1.77,-11.38,-0.75
8.673,0.43,-9.89,0.31
8.725,0.86,-10.4,1.18
8.8,-0.35,-6.47,0.27
8.823,-1.18,-8.16,0.47
8.875,-0.63,-8.98,0
8.93,-0.82,-8.51,0.2
8.991,-0.55,-9.53,0.63
9.027,0.98,-9.92,1.69
9.079,-0.94,-10.36,-0.27
9.131,-0.24,-13.3,2.31
9.181,1.29,-12.63,3.92
9.234,1.06,-10.75,0.86
9.286,2.86,-13.22,2.47
9.348,0.51,-10.98,0.47
9.385,-0.27,-7.65,-0.31
9.44,0.47,-6.43,-0.24
9.498,-0.35,-7.34,-0.67
9.551,0.39,-6.47,-0.9
9.608,-1.18,-8.2,-2.04
9.66,0.55,-10.87,-0.43
9.71,0.35,-11.92,-3.41
9.742,0.67,-13.34,-1.84
9.805,1.92,-12.51,-2.63
9.878,1.26,-7.77,2.31
9.904,1.53,-9.45,1.22
9.958,0.47,-10.4,0.71
10.014,-0.08,-9.53,1.29
10.078,-0.86,-7.22,0.39
10.097,-0.39,-8.67,0.47
10.156,-0.2,-8.12,-0.12
10.209,-0.86,-8.39,-0.43
10.262,0.51,-9.69,0.86
10.312,-0.39,-9.65,1.1
10.359,-3.02,-11.02,1.06
10.409,-1.18,-14.71,1.53
10.466,5.26,-12.32,3.45
10.517,0.9,-11.81,1.1
10.617,3.06,-11.41,2.67
10.625,-0.35,-9.92,0.51
10.674,0.71,-6.83,0.16
10.739,-0.2,-7.37,0
10.781,0.04,-7.37,-0.67
10.815,0.43,-7.41,-1.06
10.871,-0.67,-7.81,-2.43
10.92,-0.39,-10.43,-0.75
10.979,-0.27,-12.24,-2.79
11.034,1.65,-10.43,-2.16
11.096,6,-15.18,-0.55
11.124,-0.27,-6.83,1.06
11.271,0.12,-7.53,0.9
11.32,-0.75,-7.49,-0.04
11.371,-0.2,-8.9,0.08
11.425,-0.04,-8.36,-0.31
11.48,0.2,-8.39,0.16
11.532,0.86,-9.89,0.78
11.59,-0.9,-10.59,0.94
11.641,-2.2,-12,0.12
11.688,1.41,-14.16,3.22
11.744,2.75,-10.16,0.12
11.798,1.41,-14.98,2.94
11.96,0.27,-6.75,-0.31
11.99,-0.16,-7.37,-0.31
12.044,0.71,-7.3,-0.82
12.101,-0.12,-7.65,-1.14
12.136,-0.08,-9.96,-1.18
12.19,0.67,-12.67,-0.08
12.239,-1.41,-10.51,-3.3
12.292,2.79,-16.16,-0.24
12.348,2.39,-11.38,1.26
12.4,0.47,-8.94,0.16
12.466,1.18,-10.51,1.41
12.505,1.57,-10.83,3.06
12.551,0.08,-6.83,-0.12
12.602,-0.67,-8.04,0.39
12.663,-0.12,-9.92,0.31
12.71,-0.24,-8.51,-0.08
12.768,0.12,-8.08,0.2
12.802,1.92,-9.85,1.37
12.856,-1.02,-10.36,1.14
12.908,0.51,-12.83,0.27
12.963,2.24,-12.04,4.43
13.016,1.88,-9.89,1.61
13.061,3.02,-14.4,2.43
13.128,0.78,-10.79,0.47
13.177,-0.08,-7.96,-0.43
13.228,0.71,-6.63,0.08
13.277,1.14,-9.77,-0.75
13.312,1.06,-7.53,-0.9
13.368,-0.63,-7.53,-1.77
13.427,0.27,-10.87,-1.8
13.475,0.82,-12.91,0
13.526,0.47,-12.12,-2.98
13.586,4.63,-15.06,3.92
13.882,3.06,-8.83,1.29
13.891,1.53,-10.67,1.33
13.914,0,-7.45,0.08
13.973,-0.16,-8.28,0.08
14.045,-0.63,-9.14,0.78
14.076,1.77,-10.08,1.37
14.135,-2.63,-10.55,0.12
14.186,1.57,-14.16,2.39
14.241,3.45,-11.26,4.16
14.291,1.41,-10.87,0.67
14.384,2.04,-14.44,1.8
14.391,-0.27,-9.81,0.16
14.437,0.04,-7.96,-0.51
14.487,0.82,-6.86,-0.27
14.549,0.47,-7.49,-0.63
14.601,0.12,-7.65,-0.9
14.655,-0.71,-7.85,-1.84
14.694,0.04,-10.63,-0.55
14.746,-0.9,-12.16,-2.79
14.8,0.9,-11.57,-1.96
14.852,5.3,-15.02,3.65
14.906,2.2,-7.02,0.86
14.958,0.08,-10.4,0.47
15.037,1.69,-10.12,1.1
15.068,1.45,-9.73,1.49
15.101,0.35,-7.45,0.55
15.156,-0.04,-9.02,0.27
15.196,0.39,-8.51,-0.16
15.246,-0.04,-8.55,-0.12
15.302,0.78,-8.98,1.02
15.35,-0.27,-9.96,1.84
15.401,-0.55,-13.3,-0.27
15.46,1.02,-15.06,2
15.512,2.75,-10.08,2.31
15.564,2.47,-12,2.12
15.624,1.61,-14.08,1.29
15.657,1.02,-8.08,0.04
15.758,0.39,-7.69,-0.08
15.766,0.39,-6.55,-0.12
15.83,0.39,-7.41,-0.82
15.884,-0.71,-6.71,-1.57
15.914,-0.43,-9.69,-2.31
15.982,1.69,-14.59,1.33
16.022,-0.43,-10.9,-3.65
16.086,4.59,-17.1,3.57
16.138,1.77,-8.98,1.22
16.191,1.61,-10.24,1.69
16.221,-0.75,-9.81,-0.39
16.317,2.63,-11.02,2.47
16.328,0.43,-7.18,1.29
16.371,-0.86,-7.77,0.31
16.434,0,-9.38,0.55
16.481,-0.27,-8.51,0.47
16.531,-0.2,-8.87,0.39
16.575,1.33,-10.08,0.94
16.632,-1.22,-10.4,0.16
16.681,-0.47,-12.83,-0.51
16.737,-0.12,-12.98,3.41
16.786,2.12,-10.51,1.96
16.845,3.06,-14.04,3.37
16.895,1.53,-12.24,0.82
16.949,0.51,-9.18,0.16
17.025,0.51,-5.81,-0.12
17.035,-0.63,-7.65,-0.71
17.102,-0.08,-8.63,-0.71
17.136,-0.24,-7.53,-2.28
17.193,-0.31,-11.02,-2.47
17.243,0.27,-12.47,-0.86
17.312,-0.98,-8.9,-3.37
17.34,3.57,-17.18,1.92
17.395,5.26,-12.43,2.2
17.452,0.39,-8.08,0.63
17.505,0.71,-9.57,1.06
17.555,1.61,-11.69,1.73
17.664,0.63,-7.61,0.78
17.675,-0.82,-7.88,0.39
17.723,-0.35,-9.06,0.59
17.759,0.04,-8.32,-0.08
17.813,0.04,-8.24,0.16
17.867,1.84,-9.92,1.37
17.922,-0.86,-10.63,0.71
17.969,-1.22,-12.67,-1.8
18.001,0.24,-12.83,3.53
18.052,3.14,-11.02,2.16
18.106,2.82,-12.24,0.63
18.177,0.59,-13.06,1.69
18.212,0,-8.28,-0.39
18.296,0.12,-6.86,-0.51
18.31,0.08,-7.57,-0.2
18.363,-0.08,-9.73,-0.27
18.419,-0.51,-7.45,-1.49
18.47,-0.39,-9.92,-2.51
18.533,-0.24,-12.59,-0.43
18.589,-1.77,-10.47,-3.69
18.616,2.9,-13.77,1.22
18.663,7.57,-13.85,3.1
18.716,-0.9,-7.1,0.47
18.765,0.55,-10.75,1.22
18.827,3.77,-11.77,4.39
18.928,0.31,-7.49,0.16
18.937,-0.78,-8.24,0.31
19.158,-0.04,-8.71,0.12
19.165,0,-7.69,-0.43
19.171,-0.43,-8.39,0.55
19.182,1.92,-10.04,1.14
19.187,-0.59,-10.75,0.16
19.226,-0.82,-12.28,-1.02
19.281,2.04,-13.61,5.33
19.341,0.86,-11.73,1.18
19.396,1.84,-13.3,1.65
19.444,-0.51,-10.4,0.12
19.497,0.2,-7.3,-0.24
19.604,0.12,-6.83,-0.16
19.616,1.06,-8.24,-0.04
19.638,0.16,-7.53,-0.31
19.691,-0.63,-8,-1.88
19.739,-0.35,-9.57,-1.37
19.792,0.43,-14.63,-0.75
19.839,-1.22,-9.02,-4.55
19.89,6.59,-17.5,4.55
19.949,1.41,-10.4,3.02
20.004,0.63,-11.34,1.53
20.057,0.59,-11.14,1.1
20.092,1.57,-8.43,-0.27
20.146,-0.27,-7.65,0
20.229,-0.43,-8.47,0.67
20.262,-0.16,-8.55,-0.08
20.327,-0.47,-8.67,-0.39
20.368,-0.08,-8.28,0.59
20.398,1.22,-8.98,0.94
20.449,-0.94,-11.57,0.9
20.501,-0.82,-13.34,0.51
20.56,4.86,-12.83,5.33
20.608,1.77,-11.02,0.55
20.656,2.31,-13.14,1.84
20.707,-0.27,-9.85,0.35
20.809,0.67,-7.69,-0.82
20.821,0.08,-6.79,-0.43
20.862,0.43,-8.28,-0.47
20.912,0.75,-7.45,-1.1
20.967,-0.82,-7.26,-1.77
21.025,0.24,-9.81,-1.1
21.076,0.71,-14.95,-1.18
21.123,0.55,-8.98,-1.18
21.175,5.65,-13.53,-0.04
21.226,1.26,-8.32,1.14
21.279,1.92,-11.45,2.04
21.318,1.14,-10.32,0.82
21.368,0.86,-9.18,1.45
21.502,0.51,-6.32,0.16
21.511,-0.16,-8.39,-0.12
21.539,0.2,-8.98,-0.24
21.609,-0.04,-8.08,-0.16
21.639,0.04,-9.1,0.31
21.675,1.45,-9.92,2.12
21.726,-1.14,-10.24,0.31
21.775,-0.12,-14.32,2.43
21.848,4.55,-11.77,2.79
21.899,2.31,-11.89,0.82
21.929,1.88,-14.36,1.18
21.994,1.14,-9.65,0.27
22.16,1.06,-6.83,-0.86
22.206,0,-7.26,-0.9
22.236,-0.47,-8.75,-2.94
22.291,0,-9.73,0.75
22.346,-0.12,-10.67,-4.51
22.398,5.41,-16.36,4.82
22.45,2.94,-9.85,1.61
22.505,1.22,-10.71,1.88
22.561,-0.71,-7.88,-0.67
22.588,2.67,-10.94,2.59
22.651,0.31,-7.49,-0.12
22.816,1.1,-7.34,-0.31
22.879,-0.08,-8.16,0.2
22.906,1.18,-9.69,2.04
22.95,-1.8,-10.9,0.55
23.008,-0.35,-15.53,3.14
23.055,5.84,-12.55,2.75
23.109,0.98,-13.73,2.12
23.157,1.33,-13.3,1.73
23.214,0.78,-8.24,-0.59
23.262,-0.08,-6.67,-0.12
23.368,1.18,-5.61,-0.31
23.378,0.63,-7.45,-1.26
23.421,0.2,-6.86,-1.88
23.474,0.12,-9.57,-2
23.508,1.57,-12.75,-0.31
23.561,2.47,-10,-3.8
23.612,9.45,-13.38,2.79
23.67,-0.47,-8.36,4
23.718,2.08,-11.77,1.29
23.77,1.06,-10.2,0.2
23.823,0.75,-9.18,1.02
23.874,0.43,-6.9,0.39
24.022,1.26,-7.73,0.71
24.078,0.82,-9.45,1.29
24.13,0.86,-10.12,2.2
24.434,-1.73,-11.02,-2.39
24.442,1.1,-13.02,0.43
24.456,4.59,-10.87,3.84
24.475,0.12,-7.26,-0.04
24.533,-0.24,-6.55,-0.55
24.584,1.49,-5.18,-0.98
24.67,0.16,-6.2,-1.57
24.694,0.94,-8.87,-0.2
24.745,2.43,-12.32,0.51
24.803,-0.78,-9.73,-3.88
24.854,5.02,-18.79,-1.84
24.907,0.71,-10.87,3.02
24.936,2.24,-9.45,1.49
24.989,4.35,-11.85,1.26
25.063,2.31,-12.71,5.41
25.093,1.06,-7.49,2.08
25.145,0.27,-7.69,0
25.198,-0.78,-8.55,-0.35
25.245,-0.31,-7.53,-0.71
25.294,1.18,-8.55,1.1
25.358,2.79,-9.73,1.53
25.406,-0.35,-11.18,0.78
25.449,-0.94,-13.77,-0.86
25.51,3.73,-13.26,3.77
25.558,2.67,-8.98,-0.35
25.616,2,-14.55,1.88
25.665,3.49,-12.2,1.57
25.722,0.59,-8.04,-1.18
25.773,0.51,-6.71,0.04
25.824,0.78,-5.65,-0.35
25.858,1.8,-5.69,-0.9
26.031,1.14,-13.45,-2.16
26.082,3.57,-12.36,-3.14
26.108,7.41,-12.75,-3.77
26.163,2,-9.65,1.61
26.214,2.86,-11.38,1.06
26.265,3.18,-10.24,2.16
26.321,0.63,-7.57,1.33
26.369,0.71,-7.06,0.39
26.429,0.39,-8.9,0.04
26.479,0.39,-8.08,0
26.535,0.04,-8.59,0.71
26.624,2,-8.75,1.65
26.633,-0.47,-10.08,0.82
26.68,1.33,-12.63,-0.75
26.744,0.67,-13.69,5.26
26.777,5.1,-11.1,2.79
26.827,3.57,-12.79,2.24
26.893,2.39,-12.94,1.14
26.945,1.57,-8.2,0.2
26.992,0.39,-6.32,-0.08
27.043,0.98,-6.43,-0.86
27.099,1.22,-7.1,-0.63
27.194,0.47,-7.53,-1.41
27.205,1.49,-9.49,-2.43
27.25,1.8,-12.67,0.9
27.306,-0.82,-11.45,-4.98
27.33,4.79,-17.3,5.14
27.386,3.22,-10.16,0.94
27.461,2.51,-11.85,1.73
27.486,0.75,-6.04,0.55
27.545,2.39,-9.45,1.61
27.605,0.59,-7.81,1.53
27.659,0.12,-9.18,0.9
27.714,0.31,-8.83,-0.16
27.766,-0.59,-8.08,-0.27
27.839,1.14,-8.67,1.14
27.848,2.71,-9.38,1.57
27.917,-0.43,-10.51,0.78
27.968,0.12,-13.02,0.51
27.995,4.9,-15.38,5.33
28.052,2.43,-9.61,0.39
28.107,4.31,-12.55,2.55
28.17,2.12,-10.71,0.51
28.219,0.86,-6.98,-0.31
28.266,0.31,-6.28,-0.24
28.304,1.02,-6.75,-0.63
28.355,1.06,-7.41,-1.1
28.51,1.53,-13.42,-1.88
28.584,1.69,-10.63,-2.94
28.617,7.65,-15.73,2.43
28.669,2.28,-7.53,2.16
28.727,1.53,-10.59,1.49
28.781,3.3,-10.36,2.79
28.834,1.41,-8.83,1.88
28.883,0.94,-7.18,0.31
28.914,0.86,-9.18,0.51
28.972,0.63,-7.69,0.35
29.026,0.55,-7.81,0.04
29.081,0.12,-9.65,0.98
29.17,1.84,-9.73,1.92
29.183,-0.2,-10.36,0.71
29.221,1.92,-14.08,2.75
29.28,5.96,-11.89,2.86
29.332,2.9,-11.85,1.92
29.389,2.51,-12.43,1.92
29.425,1.77,-8.83,-0.24
29.72,0.63,-7.45,-0.43
29.727,1.1,-6.71,-0.24
29.737,1.26,-7.37,-0.78
29.895,2.55,-10.51,1.73
29.95,1.26,-11.45,0.71
30.005,0.55,-7.92,0.31
30.052,2.55,-9.65,0.12
30.103,1.69,-7.22,0.71
30.166,0.67,-8,0.43
30.188,0.75,-7.61,0
30.246,0.59,-8,-0.16
30.315,1.14,-8.94,1.02
30.394,0.75,-9.92,0.94
30.403,-2.43,-11.34,1.8
30.454,2.75,-15.02,3.84
30.506,5.22,-10.16,0.04
30.557,3.1,-12.87,1.84
30.612,2.98,-12.4,2.16
30.663,2.31,-8,0.47
30.726,1.33,-7.57,-0.24
30.769,0.59,-6.75,-0.47
30.819,1.69,-7.34,-0.98
30.851,0.82,-6.86,-1.77
30.907,1.26,-8.94,-2.24
30.965,2.43,-11.92,0.55
31.051,-0.04,-10.71,-4.98
31.061,6.51,-17.77,4.94
31.129,5.06,-7.88,0.08
31.177,2.51,-11.96,1.29
31.229,0.24,-6.75,0.39
31.278,2.43,-8.9,0.9
31.311,0.71,-8.04,1.33
31.371,0.12,-8.59,0.86
31.417,0.75,-8.71,-0.08
31.473,0.86,-7.61,-0.27
31.525,0.78,-8.71,1.06
31.582,2.47,-9.41,2.28
31.636,0.51,-10.63,-0.47
31.727,1.14,-13.1,1.92
31.737,6.98,-12.51,4.12
31.788,1.49,-11.85,1.69
31.836,4.2,-13.61,2.12
31.888,2.12,-10.4,1.06
31.944,1.29,-7.96,-0.47
31.995,0.39,-6.47,-0.04
32.027,1.02,-6.08,-0.27
32.081,2.16,-7.53,-1.14
32.146,0.04,-8,-2.47
32.194,0.75,-10.24,-0.63
32.312,2.63,-13.38,-1.14
32.324,3.92,-11.89,-1.45
32.343,5.33,-11.92,-1.49
32.388,1.37,-9.61,0.51
32.435,3.22,-10.4,0.63
32.506,3.92,-11.53,6.28
32.544,2.47,-7.22,2.08
32.596,0.78,-7.34,0.86
32.645,0.59,-8.79,-0.04
32.699,0.2,-8.67,-0.04
32.747,0.67,-8.59,0.24
32.8,2.28,-8.59,0.98
32.855,1.92,-9.38,3.02
32.906,1.33,-12.47,1.26
32.99,1.77,-14.12,2.24
33.023,4.08,-9.96,0.24
33.063,4.24,-13.89,1.84
33.122,2.43,-12.63,0.78
33.15,1.73,-7.61,-0.35
33.206,1.02,-6.28,0.08
33.257,1.1,-6.83,-0.94
33.316,1.61,-7.57,-0.78
33.375,1.18,-6.9,-1.69
33.402,1.29,-9.02,-2.55
33.456,4,-13.85,0.94
33.512,2.75,-12.91,-2.75
33.593,8,-13.3,2.59
33.615,3.57,-6.71,2.28
33.668,2.75,-12.16,1.18
33.715,2.51,-8.2,0.63
33.765,2.16,-8,2
33.813,0.2,-6.67,-0.39
33.865,0.98,-9.18,0.59
33.923,1.06,-8.47,-0.12
33.972,0.78,-8.08,0.31
34.025,0.94,-9.1,1.49
34.086,0.82,-9.41,3.84
34.136,-0.39,-11.18,1.33
34.19,1.41,-13.65,1.8
34.223,6.43,-10.67,2.82
34.298,4.75,-12.43,2.94
34.32,3.96,-13.14,1.61
34.398,2.08,-7.61,-0.31
34.425,0.75,-6.16,0.24
34.483,1.57,-6.55,-1.22
34.538,1.69,-7.3,-0.98
34.586,1.06,-6.35,-2.31
34.642,1.8,-9.53,-1.53
34.685,3.18,-15.02,-1.33
34.733,4.04,-12.2,-1.29
35.006,6.16,-11.22,-0.86
35.017,3.65,-10.47,3.3
35.033,1.84,-6.9,1.73
35.046,1.18,-6.86,0.39
35.091,0.55,-9.57,0.67
35.142,0.82,-7.92,0
35.188,0.35,-8.59,0.78
35.24,3.33,-8.83,1.88
35.305,0.78,-10.47,1.22
35.361,2.28,-13.02,-0.47
35.417,5.26,-12.4,6.28
35.44,3.57,-9.92,1.49
35.496,4.59,-14.24,2.31
35.577,3.49,-10.55,0.9
35.598,1.29,-6.83,-0.24
35.681,1.53,-6.67,0.08
35.711,1.26,-5.73,-0.55
35.762,2.67,-7.57,-1.29
35.818,-0.04,-7.92,-2.82
35.876,0.86,-9.77,-0.31
35.928,2.39,-13.02,-2
35.956,3.96,-11.53,-1.88
36.017,7.22,-12.83,1.37
36.077,2.75,-6.16,0.71
36.183,1.92,-11.3,0.78
36.194,4.55,-10,2.59
36.226,3.57,-8.24,1.37
36.277,1.29,-6.16,1.02
36.328,1.57,-8.75,0.63
36.384,1.37,-8.32,0.39
36.415,0.59,-7.88,0.31
36.478,3.88,-9.06,1.88
36.532,1.1,-9.53,2.31
36.587,1.37,-12.32,1.41
36.636,1.69,-14.08,5.18
36.683,4.9,-10.94,2.9
36.732,5.06,-11.96,1.53
36.782,3.33,-11.41,1.41
36.846,1.18,-8.32,-0.27
36.869,0.9,-6,0.08
36.923,1.73,-5.88,-0.94
36.983,1.26,-6.94,-1.57
37.029,-0.27,-7.49,-2.94
37.08,2.31,-8.79,-0.59
37.132,1.92,-14.28,-3.45
37.191,4.9,-14.12,-0.86
37.25,2.94,-10.59,0.04
37.293,2.71,-9.57,-0.16
37.329,3.33,-8.47,0.94
37.384,3.02,-11.89,3.02
37.501,1.33,-8.47,3.14
37.511,1.41,-6.47,0.63
37.553,2.2,-7.88,1.33
37.606,2.16,-7.85,0.9
37.656,1.61,-8.63,0.75
37.699,2.82,-8.63,1.65
37.752,1.41,-9.38,2.86
37.811,0.59,-11.02,1.53
37.862,0.31,-12.28,4.35
37.917,8.2,-12.16,4
37.949,3.02,-11.73,0.43
38.063,5.33,-14.4,4.2
38.072,3.65,-9.73,-0.47
38.092,0.98,-6.59,-0.08
38.15,1.02,-5.73,-0.31
38.201,1.57,-6.16,-0.59
38.261,2.31,-6.63,-1.33
38.297,1.73,-9.06,-1.96
38.351,2.2,-10.87,-0.59
38.413,2.31,-10.98,-4.24
38.462,6.9,-11.73,0.24
38.512,9.57,-12.91,3.22
38.566,2.04,-6.75,1.8
38.606,3.92,-9.1,1.65
38.764,0.78,-7.06,0.67
38.82,1.26,-9.81,0.39
38.877,0.75,-8.51,0.27
38.93,1.02,-7.06,1.02
38.978,2.71,-8.43,2.12
39.016,2.75,-10.08,2.75
39.065,0.16,-10.71,2.24
39.141,2.98,-13.57,3.96
39.169,5.61,-11.06,3.14
39.222,2,-11.06,0.98
39.271,5.1,-13.06,2.86
39.342,1.02,-7.65,0.12
39.368,1.14,-7.1,-0.24
39.425,1.8,-6.55,-0.47
39.475,2.24,-7.41,-0.39
39.52,2.2,-7.3,-0.71
39.582,1.06,-7.73,-1.37
39.641,2.12,-10.16,-1.57
39.7,1.61,-12.67,-2.24
39.745,3.77,-10,-2.51
39.798,10.08,-13.53,0.67
39.845,2,-6.98,1.45
39.91,3.92,-10.47,0.59
39.989,7.73,-11.22,4.55
39.997,2.28,-7.18,2.51
40.284,1.49,-7.18,1.02
40.295,0.71,-7.92,1.18
40.347,2.31,-11.41,2.24
40.406,3.8,-12.55,8.16
40.458,4,-11.81,1.49
40.492,5.61,-13.14,2.9
40.542,3.37,-9.69,0.39
40.7,2.08,-5.81,-0.55
40.753,2.2,-6.63,-0.86
40.796,1.22,-8.08,-2.79
40.855,1.29,-9.34,-1.14
40.9,4,-12.47,-1.57
40.955,5.45,-13.06,-0.12
41.013,7.96,-10.24,-1.45
41.066,1.18,-7.02,0.67
41.116,3.88,-9.49,0.94
41.166,4.9,-10.32,5.49
41.22,2.75,-7.69,3.14
41.289,0.94,-6,0.67
41.308,1.77,-8.59,0.9
41.361,1.53,-8.16,1.02
41.42,1.41,-8.79,1.06
41.466,2.75,-8.43,1.69
41.52,1.77,-9.81,2.94
41.577,2.98,-12.04,2.28
41.635,1.96,-13.06,4.82
41.684,6,-8.67,2.35
41.734,5.53,-13.26,1.96
41.783,2.63,-11.41,0.9
41.841,1.53,-7.26,-0.51
41.912,1.8,-5.88,-0.27
41.949,1.77,-5.57,-0.82
41.97,2.2,-7.02,-1.49
42.028,0.94,-7.92,-3.1
42.077,1.18,-9.22,-2.2
42.128,3.14,-13.18,-0.82
42.186,4.2,-9.92,-3.69
42.237,10.75,-13.38,3.53
42.276,2.71,-8.43,0.43
42.331,3.26,-10,0.98
42.385,5.33,-8.79,3.18
42.438,2.75,-6.86,2.63
42.537,1.02,-6.47,0.9
42.55,1.69,-10,1.14
42.582,1.88,-8.24,0.75
42.655,1.33,-8,1.49
42.684,3.57,-9.34,1.69
42.758,1.73,-9.69,1.88
42.81,3.61,-11.85,1.45
42.837,4.55,-12.2,7.45
42.911,5.3,-9.26,1.84
42.941,5.53,-13.49,2.55
42.994,2.67,-9.81,0.67
43.043,1.96,-7.49,-0.39
43.097,2.08,-6.39,-0.43
43.147,2.63,-5.41,-0.82
43.204,2.43,-7.49,-1.1
43.275,1.69,-7.57,-2.04
43.299,2.86,-9.14,-1.69
43.36,4.82,-12.28,-0.55
43.403,4.98,-10.4,-2.39
43.453,7.92,-12.24,0.86
43.505,3.18,-5.73,0.71
43.562,4.98,-10.67,2.24
43.619,2.98,-8.47,-0.78
43.667,3.26,-10.12,2.16
43.722,2.08,-5.84,0.82
43.77,2.12,-8.16,0.9
43.82,1.8,-8.9,0.08
43.892,1.18,-6.98,0.16
43.936,1.77,-7.26,1.65
43.979,4.24,-9.18,3.45
44.01,0.31,-10.32,3.22
44.067,4.39,-14.47,3.53
44.119,6.28,-10,2.86
44.175,4.71,-11.81,1.45
44.23,5.3,-13.49,2.08
44.29,3.02,-8.39,0.59
44.324,1.57,-6.98,-0.04
44.375,1.77,-6.24,-0.16
44.425,2.16,-6.75,-0.82
44.498,2.2,-6.35,-1.77
44.527,1.49,-7.57,-2.35
44.584,3.1,-10.16,-0.9
44.645,1.41,-11.06,-4.35
44.698,7.73,-16.44,3.45
44.725,5.41,-8.94,2.16
44.781,3.37,-10.59,1.73
44.833,4.2,-10,0.55
44.88,4.16,-8.71,2
44.942,2.47,-7.3,0.86
44.993,1.22,-6.86,0.35
45.051,1.53,-8.32,0.59
45.107,2.2,-8.08,0.86
45.131,1.41,-8.08,1.26
45.186,2.86,-9.14,3.22
45.234,2.12,-10.94,1.92
45.298,3.49,-13.06,4.31
45.562,8.08,-10.32,2.39
45.588,2.35,-5.61,-0.55
45.652,2.16,-6.28,-0.98
45.708,1.29,-6.83,-1.92
45.801,2.43,-9.1,-1.65
45.81,5.41,-13.57,-1.1
45.854,4.16,-8.71,-4.39
45.918,9.96,-12.63,3.8
45.947,5.02,-7.49,-1.1
45.999,4.2,-11.73,1.61
46.074,6,-10.04,3.1
46.123,3.77,-6.9,1.88
46.176,1.06,-7.41,0.86
46.206,1.84,-8.94,0.47
46.263,1.77,-8.12,0.47
46.317,1.77,-7.69,0.71
46.432,4.47,-8.67,2.82
46.444,0.86,-10.67,1.45
46.473,4.79,-12.75,2.47
46.531,6.28,-10.43,5.18
46.561,5.84,-11.77,1.96
46.619,6.98,-13.18,2.63
46.682,1.77,-7.49,0.67
46.735,1.96,-7.34,0
46.786,2.04,-5.45,-0.78
46.832,2.04,-6.71,-0.94
46.885,2.75,-6.35,-1.61
46.939,1.61,-7.77,-2.86
47.016,3.88,-11.65,2.04
47.026,1.57,-10.43,-3.88
47.084,6.75,-12.94,2.35
47.15,7.14,-9.02,2.39
47.185,3.77,-9.41,0.59
47.222,4.55,-9.81,0.47
47.28,4.47,-9.53,2.94
47.334,1.92,-6.86,2.12
47.386,1.77,-6.86,1.26
47.438,2.16,-8.63,0.78
47.496,1.73,-7.53,0.27
47.547,1.29,-7.92,0.43
47.589,4.47,-8.12,2.79
47.666,1.18,-10.24,0.27
47.698,4.08,-13.18,2.12
47.743,6.04,-11.26,8.43
47.794,5.14,-10,1.1
47.866,7.06,-12.91,3.33
47.904,5.73,-10.55,1.37
47.934,1.61,-7.18,-0.24
48.009,1.88,-4.63,0.27
48.047,2.2,-5.1,-1.1
48.101,2.67,-7.14,-1.37
48.149,2.04,-7.49,-2.94
48.211,2.71,-10.04,-0.98
48.307,4.16,-12.12,-1.18
48.315,7.14,-11.14,-1.37
48.345,8.32,-9.1,-3.73
48.402,2.39,-6.71,-0.47
48.481,5.33,-10.63,1.1
48.517,5.88,-11.53,3.92
48.57,3.1,-8.55,3.49
48.62,2.35,-6.16,1.57
48.651,2.04,-6.83,1.06
48.711,2.2,-7.85,0.94
48.766,1.57,-8.12,0.75
48.825,3.73,-8.71,2.24
48.874,1.33,-10.32,0.47
48.919,6,-12.59,0.71
49.042,5.1,-11.1,8.47
49.049,5.26,-11.49,1.53
49.067,6.51,-13.77,2.67
49.109,3.8,-10.47,1.06
49.195,2.94,-7.81,-0.16
49.211,1.57,-5.57,-0.35
49.283,2.28,-5.22,-0.71
49.337,2.79,-5.77,-1.45
49.364,2,-7.73,-2.55
49.417,4.24,-11.3,0.24
49.475,4.16,-11.41,-4.28
49.524,6.98,-12.91,2.9
49.678,5.02,-10.47,1.77
49.734,5.26,-8.87,1.65
49.77,1.73,-7.73,1.18
49.83,1.18,-7.06,0.75
49.878,2.28,-8.47,0.75
49.928,1.53,-7.96,1.1
49.982,1.73,-7.77,1.18
50.037,3.65,-6.79,2.04
50.083,2.55,-10.12,1.61
50.14,-0.71,-10.47,2.86
50.186,3.37,-11.96,7.85
50.243,6.16,-12.67,2.2
50.28,7.65,-12.51,3.41
50.338,5.69,-11.57,1.22
50.39,3.14,-8.67,-0.04
50.443,1.22,-5.88,-0.2
50.487,1.65,-5.1,-0.16
50.552,2.43,-4.35,-1.41
50.838,0.08,-9.06,-1.29
50.847,3.92,-7.81,-0.39
50.892,6.32,-7.85,-0.04
50.959,5.37,-9.85,1.49
51.014,2.63,-7.45,2.16
51.046,2.31,-6.55,0.78
51.112,2,-8.28,0.71
51.157,1.06,-7.77,0
51.21,1.69,-7.1,1.37
51.259,5.26,-8.47,2.47
51.317,2.04,-11.22,0.2
51.372,3.1,-12.67,0.43
51.42,13.38,-12.75,8.9
51.47,4.47,-10.9,0.51
51.507,4.71,-10.2,5.14
51.596,5.61,-8.75,2.24
51.632,2.82,-6,1.02
51.661,1.92,-6.04,-0.16
51.712,2.28,-7.26,-0.35
51.772,2.39,-5.92,-2.04
51.834,1.8,-7.3,-2.63
51.885,4.08,-11.45,-0.04
51.933,4.51,-9.61,-3.8
51.965,13.73,-18.71,7.14
52.026,4.98,-3.3,1.1
52.076,8.16,-10.9,2.9
52.246,2.35,-6.28,1.73
52.279,1.8,-7.77,0.67
52.339,1.69,-8.71,0.2
52.39,1.33,-7.65,0.75
52.446,4.55,-7.92,2.04
52.5,2.59,-10.24,1.77
52.527,4.43,-11.45,1.02
52.586,5.53,-13.61,7.41
52.641,4.63,-10.04,2.39
52.693,6.55,-11.45,2.39
52.789,6,-11.73,2.16
52.796,3.92,-7.65,0.94
52.831,1.26,-6.08,0
52.889,1.37,-4.55,-1.02
52.942,2.67,-5.81,-1.26
52.994,3.49,-7.57,-3.22
53.049,2.9,-9.53,0.08
53.091,4.79,-11.53,-4.75
53.159,8.39,-15.81,2.59
53.206,-0.31,-5.49,1.96
53.256,5.41,-10.12,1.73
53.304,5.88,-10.47,2.86
53.36,8.2,-8.87,4.75
53.409,3.57,-6,1.65
53.56,1.14,-8.36,-0.16
53.62,1.61,-8.39,0.98
53.65,4.71,-8.47,2.94
53.701,2.59,-10.83,0.39
53.755,3.96,-12.36,4.86
53.814,9.22,-12.91,9.14
53.859,6.12,-9.65,0.98
53.909,4.9,-13.96,2.63
53.968,5.61,-9.53,1.41
54.067,1.45,-5.37,-0.86
54.077,1.77,-5.33,-0.08
54.126,4.35,-8.9,0.67
54.181,2.82,-6.67,-1.29
54.229,3.49,-8.32,-2.43
54.277,3.88,-10.16,-0.63
54.327,3.77,-11.22,-2.63
54.394,6.24,-12.43,1.26
54.423,6.55,-9.65,-0.75
54.474,2.63,-8.16,-0.31
54.524,4.9,-10,1.57
54.579,6.32,-9.57,4.71
54.633,2.59,-6.2,3.77
54.68,2.59,-7.73,1.41
54.846,2.12,-9.26,1.73
54.881,3.26,-9.49,2.16
54.93,2.51,-10.12,1.37
54.982,3.57,-12.67,5.41
55.04,7.02,-10.16,1.61
55.094,4.9,-10.4,2.31
55.139,5.45,-11.22,2.82
55.195,4.24,-8.63,1.1
55.253,2.55,-7.18,0.31
55.302,2.31,-6.67,-0.24
55.412,2.79,-5.41,-0.9
55.424,1.8,-6.24,-1.57
55.446,3.65,-7.96,-1.14
55.505,6.79,-13.38,1.02
55.553,5.22,-9.81,-3.26
55.602,10.16,-12.32,2.51
55.656,3.73,-4.67,3.1
55.688,7.18,-10.51,1.45
55.747,4.04,-9.14,-0.2
55.806,2.9,-7.49,1.88
55.854,0.78,-5.53,0.16
56.12,1.77,-9.77,0.43
56.155,0.78,-9.18,1.06
56.199,4.63,-13.77,2.9
56.259,9.18,-10.94,3.96
56.322,6.24,-8.83,1.53
56.373,5.33,-10.28,3.96
56.427,4.82,-9.92,1.69
56.461,3.1,-6.83,-0.51
56.514,2.08,-7.3,-0.31
56.564,2.04,-6.39,-0.16
56.616,3.14,-6,-1.14
56.659,2.9,-6.98,-1.37
56.719,3.65,-11.22,-1.22
56.781,4.43,-9.14,-0.75
56.832,4.35,-8.75,-2.98
56.885,14.67,-19.85,7.14
56.916,1.49,-5.69,1.88
56.965,5.96,-10,2.82
57.018,5.22,-10.87,2.55
57.083,4.39,-7.92,0.63
57.133,2.24,-6.86,1.29
57.191,2.79,-7.73,1.26
57.24,2.55,-7.73,0.43
57.266,2.24,-8.36,-0.12
57.323,3.14,-7.61,0.2
57.384,4.59,-8.04,2.75
57.44,2.82,-9.41,2.28
57.492,1.18,-10.47,1.49
57.523,1.29,-12.47,3.49
57.579,10.12,-9.06,4.28
57.631,6.2,-11.96,1.96
57.685,6,-11.18,1.77
57.738,3.45,-8.32,0.51
57.79,2.43,-6.51,0.35
57.849,2.75,-5.61,-0.24
57.958,3.57,-6.71,-0.9
57.968,2.9,-6.43,-1.45
57.992,3.1,-8.39,-2.2
58.044,5.14,-10.12,0.67
58.101,2.75,-10.75,-4.2
58.154,8.83,-14.32,3.73
58.211,5.18,-6.75,0.12
58.258,5.06,-9.65,1.18
58.3,4.86,-8.04,-0.16
58.344,4.82,-9.38,2.04
58.394,1.84,-6.71,0.43
58.445,1.88,-7.73,-0.08
58.499,2.2,-8.87,0.43
58.592,2.9,-7.49,0.31
58.6,2.59,-7.88,1.65
58.669,4.79,-8.67,1.96
58.718,2.2,-9.53,1.29
58.765,4.82,-13.57,3.1
58.815,9.57,-9.96,5.26
58.872,6.28,-10.4,1.84
58.903,5.3,-11.38,2.35
58.959,4.28,-7.81,0.9
59.015,2.63,-6.47,0.2
59.067,2.63,-6.35,0.2
59.119,3.69,-6.67,-1.1
59.281,3.3,-9.92,-0.94
59.311,5.1,-11.22,-1.88
59.368,12.04,-18.87,6.2
59.42,2.39,-4.39,1.69
59.47,6.12,-10.83,2.04
59.522,5.96,-7.92,0.04
59.572,4.9,-8.12,1.53
59.618,2.24,-7.3,2.12
59.676,2.31,-7.34,0.94
59.726,3.57,-8.67,0.27
59.785,2.55,-7.69,0.39
59.818,2.98,-8.24,0.43
59.89,3.96,-8.36,1.33
59.939,3.37,-9.06,3.41
60,2.35,-11.3,2.63
60.031,3.45,-12.55,3.61
60.096,8.55,-8.55,4.63
60.149,6.12,-11.73,2.24
60.18,6.59,-11.73,3.49
60.252,4.04,-8.59,1.33
60.285,2.86,-5.45,0.24
60.336,2.47,-6.83,0.24
60.385,3.22,-5.53,-0.82
60.486,2.94,-5.73,-1.53
60.494,3.84,-8.9,-1.96
60.535,5.57,-13.02,0.86
60.596,2.59,-8.55,-5.26
60.652,12.36,-15.53,5.77
60.699,7.37,-6.86,3.84
60.754,4.98,-8.75,2.51
60.809,-1.1,-5.57,-0.51
60.859,5.53,-8.75,2.28
60.9,3.18,-5.69,-0.47
60.957,1.84,-8,0.24
61.006,2.9,-9.18,0.71
