ACC Z,ACC Y,ACC X,Time [sec]
-11.17,-1.03,1.87,0.032
-11.21,-0.9,1.62,0.138
-11.14,-0.72,1.18,0.251
-11.14,-0.72,1.18,0.335
-11.14,-0.72,1.18,0.418
-11.14,-0.72,1.18,0.476
-11.14,-0.72,1.18,0.564
-11.14,-0.72,1.18,0.653
-11.14,-0.72,1.18,0.714
-11.14,-0.72,1.18,0.801
-10.47,-0.2,1.6,0.86
-9.73,0.12,2.18,0.951
-9.62,1.01,2.8,1.037
-9.62,1.01,2.8,1.129
-9.62,1.01,2.8,1.217
-9.62,1.01,2.8,1.275
-9.62,1.01,2.8,1.368
-9.62,1.01,2.8,1.46
-9.62,1.01,2.8,1.521
-9.62,1.01,2.8,1.611
-10.21,1.11,2.51,1.707
-11.35,1.29,1.65,1.766
-12.74,0.07,1.56,1.855
-12.74,0.07,1.56,1.949
-12.74,0.07,1.56,2.009
-12.74,0.07,1.56,2.069
-12.74,0.07,1.56,2.161
-12.74,0.07,1.56,2.254
-12.74,0.07,1.56,2.342
-12.74,0.07,1.56,2.402
-13.39,0.03,2.63,2.49
-12.5,-1.29,3.97,2.588
-11.02,-1.35,4.11,2.646
-11.02,-1.35,4.11,2.738
-11.02,-1.35,4.11,2.829
-11.02,-1.35,4.11,2.889
-11.02,-1.35,4.11,2.98
-11.02,-1.35,4.11,3.075
-11.02,-1.35,4.11,3.141
-11.02,-1.35,4.11,3.234
-10.59,-2.3,3.31,3.291
-10.33,-1.57,2.18,3.387
-9.85,-0.98,2.38,3.449
-9.85,-0.98,2.38,3.542
-9.85,-0.98,2.38,3.637
-9.85,-0.98,2.38,3.699
-9.85,-0.98,2.38,3.79
-9.85,-0.98,2.38,3.885
-9.85,-0.98,2.38,3.955
-9.85,-0.98,2.38,4.051
-9.41,-0.6,1.87,4.11
-10.06,-0.12,1.74,4.201
-10.76,0.12,1.05,4.261
-10.76,0.12,1.05,4.353
-10.76,0.12,1.05,4.45
-10.76,0.12,1.05,4.521
-10.76,0.12,1.05,4.621
-10.76,0.12,1.05,4.677
-10.76,0.12,1.05,4.772
-10.76,0.12,1.05,4.834
-10.94,0.58,1.63,4.925
-12.02,0.88,2,5.019
-13.15,-0.31,3.52,5.083
-13.15,-0.31,3.52,5.142
-13.15,-0.31,3.52,5.238
-13.15,-0.31,3.52,5.336
-13.15,-0.31,3.52,5.431
-13.15,-0.31,3.52,5.529
-13.15,-0.31,3.52,5.591
-13.15,-0.31,3.52,5.65
-14.46,-2.03,3.69,5.746
-12.85,-3.57,4.26,5.809
-11.68,-3.31,3.2,5.902
-11.68,-3.31,3.2,5.967
-11.68,-3.31,3.2,6.065
-11.68,-3.31,3.2,6.128
-11.68,-3.31,3.2,6.191
-11.68,-3.31,3.2,6.281
-11.68,-3.31,3.2,6.379
-11.68,-3.31,3.2,6.479
-10.13,-3.02,2.98,6.549
-10.33,-2.71,2.98,6.614
-9.57,-2.3,2.55,6.711
-9.57,-2.3,2.55,6.782
-9.57,-2.3,2.55,6.848
-9.57,-2.3,2.55,6.95
-9.57,-2.3,2.55,7.051
-9.57,-2.3,2.55,7.116
-9.57,-2.3,2.55,7.178
-9.57,-2.3,2.55,7.274
-9.52,-1.27,2.51,7.379
-9.15,-0.56,2.25,7.454
-9.66,-0.13,2.5,7.518
-9.66,-0.13,2.5,7.614
-9.66,-0.13,2.5,7.683
-9.66,-0.13,2.5,7.746
-9.66,-0.13,2.5,7.842
-9.66,-0.13,2.5,7.941
-9.66,-0.13,2.5,7.949
-9.66,-0.13,2.5,8.044
-10.33,-0.46,1.94,8.139
-11.47,-0.65,1.62,8.238
-12.24,-0.8,1.02,8.33
-12.24,-0.8,1.02,8.425
-12.24,-0.8,1.02,8.492
-12.24,-0.8,1.02,8.586
-12.24,-0.8,1.02,8.681
-12.24,-0.8,1.02,8.743
-12.24,-0.8,1.02,8.803
-12.24,-0.8,1.02,8.897
-11.7,-0.71,1.46,8.992
-11.43,-0.68,2.03,9.088
-11.69,-2.05,3.07,9.099
-11.69,-2.05,3.07,9.191
-11.69,-2.05,3.07,9.289
-11.69,-2.05,3.07,9.388
-11.69,-2.05,3.07,9.483
-11.69,-2.05,3.07,9.542
-11.69,-2.05,3.07,9.634
-11.69,-2.05,3.07,9.699
-12,-1.63,2.5,9.788
-13.26,-3.19,1.75,9.889
-11.82,-3.33,1.37,9.953
-11.82,-3.33,1.37,10.012
-11.82,-3.33,1.37,10.1
-11.82,-3.33,1.37,10.196
-11.82,-3.33,1.37,10.264
-11.82,-3.33,1.37,10.358
-11.82,-3.33,1.37,10.456
-11.82,-3.33,1.37,10.516
-12.2,-4.6,2.63,10.581
-9.98,-4.01,2.46,10.642
-10.3,-3.43,2.47,10.739
-10.3,-3.43,2.47,10.84
-10.3,-3.43,2.47,10.904
-10.3,-3.43,2.47,10.998
-10.3,-3.43,2.47,11.098
-10.3,-3.43,2.47,11.193
-10.3,-3.43,2.47,11.256
-10.3,-3.43,2.47,11.355
-9.41,-3.24,2.45,11.367
-9.87,-3.41,2.92,11.462
-9.36,-3.15,2.84,11.565
-9.36,-3.15,2.84,11.63
-9.36,-3.15,2.84,11.728
-9.36,-3.15,2.84,11.824
-9.36,-3.15,2.84,11.889
-9.36,-3.15,2.84,11.987
-9.36,-3.15,2.84,12.05
-9.36,-3.15,2.84,12.144
-9.35,-2.86,2.26,12.211
-9.43,-1.99,1.83,12.309
-10.37,-1.6,1.71,12.369
-10.37,-1.6,1.71,12.465
-10.37,-1.6,1.71,12.532
-10.37,-1.6,1.71,12.594
-10.37,-1.6,1.71,12.683
-10.37,-1.6,1.71,12.783
-10.37,-1.6,1.71,12.882
-10.37,-1.6,1.71,12.983
-10.28,-1.54,1.96,13.045
-10.75,-1.66,2.64,13.142
-11.11,-1.95,3.61,13.205
-11.11,-1.95,3.61,13.268
-11.11,-1.95,3.61,13.331
-11.11,-1.95,3.61,13.431
-11.11,-1.95,3.61,13.494
-11.11,-1.95,3.61,13.594
-11.11,-1.95,3.61,13.7
-11.11,-1.95,3.61,13.763
-11.7,-2.14,3.31,13.823
-11.83,-1.88,3.06,13.918
-12.47,-2.9,2.2,13.983
-12.47,-2.9,2.2,14.079
-12.47,-2.9,2.2,14.176
-12.47,-2.9,2.2,14.185
-12.47,-2.9,2.2,14.292
-12.47,-2.9,2.2,14.394
-12.47,-2.9,2.2,14.468
-12.47,-2.9,2.2,14.57
-12.68,-2.68,2.84,14.671
-12.07,-4.56,3.84,14.735
-10.02,-3.65,3.28,14.801
-10.02,-3.65,3.28,14.865
-10.02,-3.65,3.28,14.973
-10.02,-3.65,3.28,15.04
-10.02,-3.65,3.28,15.142
-10.02,-3.65,3.28,15.205
-10.02,-3.65,3.28,15.3
-10.02,-3.65,3.28,15.368
-9.48,-4.85,2.77,15.429
-9.56,-3.43,2,15.523
-10.04,-3.83,2.59,15.622
-10.04,-3.83,2.59,15.73
-10.04,-3.83,2.59,15.8
-10.04,-3.83,2.59,15.863
-10.04,-3.83,2.59,15.963
-10.04,-3.83,2.59,16.029
-10.04,-3.83,2.59,16.126
-10.04,-3.83,2.59,16.196
-9.83,-2.99,2.38,16.297
-10,-2.75,2.42,16.365
-9.91,-2.22,2.35,16.432
-9.91,-2.22,2.35,16.527
-9.91,-2.22,2.35,16.596
-9.91,-2.22,2.35,16.659
-9.91,-2.22,2.35,16.761
-9.91,-2.22,2.35,16.86
-9.91,-2.22,2.35,16.927
-9.91,-2.22,2.35,16.993
-10.13,-1.94,2.39,17.092
-9.62,-1.65,2.24,17.161
-9.61,-1.65,2.97,17.228
-9.61,-1.65,2.97,17.331
-9.61,-1.65,2.97,17.403
-9.61,-1.65,2.97,17.467
-9.61,-1.65,2.97,17.567
-9.61,-1.65,2.97,17.673
-9.61,-1.65,2.97,17.74
-9.61,-1.65,2.97,17.836
-9.52,-1.29,2.96,17.9
-10.09,-1.24,2.5,17.962
-10.37,-1.28,1.8,18.061
-10.37,-1.28,1.8,18.126
-10.37,-1.28,1.8,18.23
-10.37,-1.28,1.8,18.294
-10.37,-1.28,1.8,18.359
-10.37,-1.28,1.8,18.462
-10.37,-1.28,1.8,18.564
-10.37,-1.28,1.8,18.631
-10.24,-1.27,1.91,18.695
-10.85,-1.65,2.92,18.797
-11.61,-1.92,3.87,18.866
-11.61,-1.92,3.87,18.931
-11.61,-1.92,3.87,18.995
-11.61,-1.92,3.87,19.093
-11.61,-1.92,3.87,19.194
-11.61,-1.92,3.87,19.302
-11.61,-1.92,3.87,19.314
-11.61,-1.92,3.87,19.413
-12.29,-1.75,3.69,19.521
-12.76,-2.31,2.98,19.588
-11.58,-3.91,2.04,19.653
-11.58,-3.91,2.04,19.753
-11.58,-3.91,2.04,19.859
-11.58,-3.91,2.04,19.873
-11.58,-3.91,2.04,19.975
-11.58,-3.91,2.04,20.083
-11.58,-3.91,2.04,20.186
-11.58,-3.91,2.04,20.254
-12.24,-5.05,3.45,20.321
-10.28,-5.22,3.32,20.389
-11.07,-3.79,3.24,20.489
-11.07,-3.79,3.24,20.557
-11.07,-3.79,3.24,20.661
-11.07,-3.79,3.24,20.726
-11.07,-3.79,3.24,20.83
-11.07,-3.79,3.24,20.9
-11.07,-3.79,3.24,20.964
-11.07,-3.79,3.24,21.029
-10.13,-3.7,2.35,21.129
-10.41,-3.54,2.31,21.233
-9.58,-3.31,2.41,21.303
-9.58,-3.31,2.41,21.371
-9.58,-3.31,2.41,21.442
-9.58,-3.31,2.41,21.542
-9.58,-3.31,2.41,21.608
-9.58,-3.31,2.41,21.676
-9.58,-3.31,2.41,21.781
-9.58,-3.31,2.41,21.849
-9.05,-2.51,1.69,21.915
-9.6,-1.8,1.61,21.981
-10.21,-1.58,1.8,22.122
-10.21,-1.58,1.8,22.23
-10.21,-1.58,1.8,22.301
-10.21,-1.58,1.8,22.367
-10.21,-1.58,1.8,22.436
-10.21,-1.58,1.8,22.502
-10.21,-1.58,1.8,22.604
-10.21,-1.58,1.8,22.707
-10.57,-1.15,2.29,22.718
-11.38,-0.85,3.27,22.822
-11.62,0.2,3.57,22.925
-11.62,0.2,3.57,23.033
-11.62,0.2,3.57,23.101
-11.62,0.2,3.57,23.17
-11.62,0.2,3.57,23.238
-11.62,0.2,3.57,23.343
-11.62,0.2,3.57,23.41
-11.62,0.2,3.57,23.479
-12.28,0.01,3.39,23.547
-12.54,-2.01,2.94,23.614
-11.45,-3.62,2.89,23.726
-11.45,-3.62,2.89,23.833
-11.45,-3.62,2.89,23.903
-11.45,-3.62,2.89,23.972
-11.45,-3.62,2.89,24.036
-11.45,-3.62,2.89,24.141
-11.45,-3.62,2.89,24.211
-11.45,-3.62,2.89,24.282
-10.06,-6.08,4.18,24.388
-8.45,-5.01,3.9,24.398
-9,-4.85,4.16,24.538
-9,-4.85,4.16,24.609
-9,-4.85,4.16,24.712
-9,-4.85,4.16,24.785
-9,-4.85,4.16,24.852
-9,-4.85,4.16,24.958
-9,-4.85,4.16,25.028
-9,-4.85,4.16,25.139
-9.81,-3.61,3.6,25.208
-9.9,-3.39,3.41,25.276
-9.6,-2.92,3.11,25.349
-9.6,-2.92,3.11,25.42
-9.6,-2.92,3.11,25.491
-9.6,-2.92,3.11,25.596
-9.6,-2.92,3.11,25.669
-9.6,-2.92,3.11,25.736
-9.6,-2.92,3.11,25.806
-9.6,-2.92,3.11,25.913
-9.35,-2.2,2.26,25.98
-9.78,-1.99,2.08,26.097
-10.19,-1.83,1.82,26.167
-10.19,-1.83,1.82,26.239
-10.19,-1.83,1.82,26.309
-10.19,-1.83,1.82,26.378
-10.19,-1.83,1.82,26.483
-10.19,-1.83,1.82,26.553
-10.19,-1.83,1.82,26.661
-10.19,-1.83,1.82,26.742
-9.87,-1.58,2.48,26.81
-10.08,-1.32,3.28,26.878
-10.83,-0.86,3.6,26.983
-10.83,-0.86,3.6,27.055
-10.83,-0.86,3.6,27.126
-10.83,-0.86,3.6,27.234
-10.83,-0.86,3.6,27.34
-10.83,-0.86,3.6,27.35
-10.83,-0.86,3.6,27.459
-10.83,-0.86,3.6,27.534
-11.86,-1.1,3.06,27.64
-12.53,-2.21,2.75,27.708
-11.45,-4.58,2.46,27.778
-11.45,-4.58,2.46,27.847
-11.45,-4.58,2.46,27.952
-11.45,-4.58,2.46,28.018
-11.45,-4.58,2.46,28.123
-11.45,-4.58,2.46,28.193
-11.45,-4.58,2.46,28.3
-11.45,-4.58,2.46,28.37
-10.81,-5.43,3.75,28.478
-9.19,-4.65,3.52,28.49
-9.73,-3.26,3.77,28.603
-9.73,-3.26,3.77,28.728
-9.73,-3.26,3.77,28.816
-9.73,-3.26,3.77,28.827
-9.73,-3.26,3.77,28.933
-9.73,-3.26,3.77,29.004
-9.73,-3.26,3.77,29.074
-9.73,-3.26,3.77,29.184
-9.96,-3.13,2.89,29.254
-10.38,-3.47,2.84,29.325
-9.99,-3.65,2.81,29.394
-9.99,-3.65,2.81,29.502
-9.99,-3.65,2.81,29.611
-9.99,-3.65,2.81,29.684
-9.99,-3.65,2.81,29.694
-9.99,-3.65,2.81,29.804
-9.99,-3.65,2.81,29.913
-9.99,-3.65,2.81,29.924
-9.98,-3.32,2.51,30.034
-9.58,-3.07,2.71,30.146
-9.74,-2.75,2.01,30.262
-9.74,-2.75,2.01,30.348
-9.74,-2.75,2.01,30.356
-9.74,-2.75,2.01,30.607
-9.74,-2.75,2.01,30.697
-9.74,-2.75,2.01,30.766
-9.74,-2.75,2.01,30.879
-9.74,-2.75,2.01,31.96
-9,-3.19,1.84,32.133
-9.13,-3.48,2.31,32.208
-8.63,-3.77,3.24,32.275
-10.04,-2.54,2.28,32.399
-10.04,-2.54,2.28,32.412
-10.04,-2.54,2.28,32.486
-10.04,-2.54,2.28,32.493
-10.04,-2.54,2.28,32.499
-9.77,-2.9,3.28,32.508
-9.73,-2.59,3.74,32.695
-10.03,-2.42,4.07,32.768
-10.03,-2.42,4.07,33.002
-10.03,-2.42,4.07,33.014
-10.03,-2.42,4.07,33.023
-10.03,-2.42,4.07,33.091
-10.03,-2.42,4.07,33.103
-10.03,-2.42,4.07,33.176
-10.03,-2.42,4.07,33.25
-10.57,-1.97,3.48,33.324
-11.14,-2.04,3.16,33.394
-11.92,-2.43,2.29,33.5
-11.92,-2.43,2.29,33.512
-11.92,-2.43,2.29,33.623
-11.92,-2.43,2.29,33.739
-11.92,-2.43,2.29,33.751
-11.92,-2.43,2.29,33.864
-11.92,-2.43,2.29,33.943
-11.92,-2.43,2.29,34.014
-12.43,-2.55,2.67,34.084
-12,-1.91,3.03,34.156
-12.04,-3.14,5.19,34.273
-12.04,-3.14,5.19,34.344
-12.04,-3.14,5.19,34.415
-12.04,-3.14,5.19,34.486
-12.04,-3.14,5.19,34.597
-12.04,-3.14,5.19,34.675
-12.04,-3.14,5.19,34.748
-12.04,-3.14,5.19,34.819
-12.51,-3.45,4.77,34.931
-12.81,-5.49,4.73,34.942
-11.47,-3.9,3.82,35.053
-11.47,-3.9,3.82,35.123
-11.47,-3.9,3.82,35.233
-11.47,-3.9,3.82,35.307
-11.47,-3.9,3.82,35.383
-11.47,-3.9,3.82,35.462
-11.47,-3.9,3.82,35.58
-11.47,-3.9,3.82,35.693
-9.49,-5.07,4.13,35.704
-9.09,-4.55,4.12,35.776
-9.06,-4.69,3.82,35.89
-9.06,-4.69,3.82,35.967
-9.06,-4.69,3.82,36.041
-9.06,-4.69,3.82,36.117
-9.06,-4.69,3.82,36.189
-9.06,-4.69,3.82,36.302
-9.06,-4.69,3.82,36.377
-9.06,-4.69,3.82,36.448
-10.24,-3.69,4.11,36.521
-9.66,-3.19,3.83,36.594
-9.49,-2.81,3.66,36.712
-9.49,-2.81,3.66,36.787
-9.49,-2.81,3.66,36.86
-9.49,-2.81,3.66,36.93
-9.49,-2.81,3.66,37.038
-9.49,-2.81,3.66,37.114
-9.49,-2.81,3.66,37.187
-9.49,-2.81,3.66,37.261
-8.67,-2.17,3.06,37.332
-9.24,-1.77,2.59,37.407
-9.99,-1.54,2.3,37.522
-9.99,-1.54,2.3,37.636
-9.99,-1.54,2.3,37.647
-9.99,-1.54,2.3,37.727
-9.99,-1.54,2.3,37.842
-9.99,-1.54,2.3,37.855
-9.99,-1.54,2.3,37.973
-9.99,-1.54,2.3,38.088
-9.68,-1.54,2.96,38.167
-10.02,-1.29,3.84,38.239
-10.47,-0.89,4.34,38.314
-10.47,-0.89,4.34,38.39
-10.47,-0.89,4.34,38.461
-10.47,-0.89,4.34,38.578
-10.47,-0.89,4.34,38.651
-10.47,-0.89,4.34,38.724
-10.47,-0.89,4.34,38.796
-10.47,-0.89,4.34,38.91
-11.7,-1.2,3.88,38.987
-11.96,-1.12,3.14,39.062
-12.12,-2.96,2.86,39.135
-12.12,-2.96,2.86,39.211
-12.12,-2.96,2.86,39.286
-12.12,-2.96,2.86,39.359
-12.12,-2.96,2.86,39.471
-12.12,-2.96,2.86,39.542
-12.12,-2.96,2.86,39.619
-12.12,-2.96,2.86,39.693
-12.26,-2.42,3.44,39.766
-11.34,-4.09,4.73,39.841
-10.12,-3.52,4.07,39.918
-10.12,-3.52,4.07,39.991
-10.12,-3.52,4.07,40.107
-10.12,-3.52,4.07,40.187
-10.12,-3.52,4.07,40.261
-10.12,-3.52,4.07,40.337
-10.12,-3.52,4.07,40.416
-10.12,-3.52,4.07,40.493
-9.65,-5.58,3.36,40.566
-9.98,-4.41,2.93,40.687
-10.07,-4.34,3.31,40.766
-10.07,-4.34,3.31,40.846
-10.07,-4.34,3.31,40.925
-10.07,-4.34,3.31,41.002
-10.07,-4.34,3.31,41.076
-10.07,-4.34,3.31,41.15
-10.07,-4.34,3.31,41.271
-10.07,-4.34,3.31,41.348
-10.09,-3.3,3.02,41.422
-9.87,-3.52,2.68,41.496
-9.72,-2.92,2.22,41.571
-9.72,-2.92,2.22,41.648
-9.72,-2.92,2.22,41.721
-9.72,-2.92,2.22,41.793
-9.72,-2.92,2.22,41.87
-9.72,-2.92,2.22,41.946
-9.72,-2.92,2.22,42.064
-9.72,-2.92,2.22,42.142
-9.3,-2.6,2.09,42.214
-8.92,-2.37,2.28,42.289
-8.93,-2.65,2.98,42.368
-8.93,-2.65,2.98,42.443
-8.93,-2.65,2.98,42.521
-8.93,-2.65,2.98,42.641
-8.93,-2.65,2.98,42.718
-8.93,-2.65,2.98,42.793
-8.93,-2.65,2.98,42.869
-8.93,-2.65,2.98,42.947
-9.57,-2.3,2.75,43.024
-10.19,-1.86,2.17,43.103
-10.75,-1.63,1.99,43.176
-10.75,-1.63,1.99,43.255
-10.75,-1.63,1.99,43.33
-10.75,-1.63,1.99,43.448
-10.75,-1.63,1.99,43.526
-10.75,-1.63,1.99,43.603
-10.75,-1.63,1.99,43.676
-10.75,-1.63,1.99,43.755
-10.53,-1.24,2.52,43.831
-11.23,-1.62,3.33,43.908
-11.72,-1.49,3.73,43.985
-11.72,-1.49,3.73,44.062
-11.72,-1.49,3.73,44.144
-11.72,-1.49,3.73,44.267
-11.72,-1.49,3.73,44.28
-11.72,-1.49,3.73,44.4
-11.72,-1.49,3.73,44.517
-11.72,-1.49,3.73,44.529
-12.43,-1.41,3.49,44.649
-12.75,-1.82,2.5,44.723
-12.02,-3.63,1.74,44.8
-12.02,-3.63,1.74,44.878
-12.02,-3.63,1.74,45
-12.02,-3.63,1.74,45.084
-12.02,-3.63,1.74,45.163
-12.02,-3.63,1.74,45.242
-12.02,-3.63,1.74,45.32
-12.02,-3.63,1.74,45.4
-11.92,-4.62,2.77,45.478
-10.63,-5.81,3.92,45.557
-10.37,-4.86,3.32,45.634
-10.37,-4.86,3.32,45.713
-10.37,-4.86,3.32,45.792
-10.37,-4.86,3.32,45.872
-10.37,-4.86,3.32,45.953
-10.37,-4.86,3.32,45.963
-10.37,-4.86,3.32,46.09
-10.37,-4.86,3.32,46.168
-9,-5.74,2.54,46.246
-9.53,-4.73,1.82,46.331
-9.32,-4.67,2.31,46.408
-9.32,-4.67,2.31,46.529
-9.32,-4.67,2.31,46.612
-9.32,-4.67,2.31,46.688
-9.32,-4.67,2.31,46.768
-9.32,-4.67,2.31,46.844
-9.32,-4.67,2.31,46.923
-9.32,-4.67,2.31,47.001
-10.23,-3.45,2.58,47.083
-9.36,-2.79,2.13,47.163
-10.2,-1.9,1.86,47.291
-10.2,-1.9,1.86,47.303
-10.2,-1.9,1.86,47.385
-10.2,-1.9,1.86,47.509
-10.2,-1.9,1.86,47.519
-10.2,-1.9,1.86,47.642
-10.2,-1.9,1.86,47.721
-10.2,-1.9,1.86,47.801
-9.81,-1.37,2.03,47.92
-9.6,-1.23,2.64,48
-9.89,-1.2,3.5,48.08
-9.89,-1.2,3.5,48.156
-9.89,-1.2,3.5,48.234
-9.89,-1.2,3.5,48.311
-9.89,-1.2,3.5,48.39
-9.89,-1.2,3.5,48.466
-9.89,-1.2,3.5,48.542
-9.89,-1.2,3.5,48.619
-10.23,-1.15,2.88,48.694
-11.57,-1.28,2.59,48.775
-12.3,-2.08,2.34,48.855
-12.3,-2.08,2.34,48.933
-12.3,-2.08,2.34,49.013
-12.3,-2.08,2.34,49.09
-12.3,-2.08,2.34,49.168
-12.3,-2.08,2.34,49.25
-12.3,-2.08,2.34,49.373
-12.3,-2.08,2.34,49.45
-12.81,-2.92,3.09,49.527
-11.24,-4.88,4.05,49.607
-9.53,-4.94,3.79,49.689
-9.53,-4.94,3.79,49.764
-9.53,-4.94,3.79,49.847
-9.53,-4.94,3.79,49.93
-9.53,-4.94,3.79,50.008
-9.53,-4.94,3.79,50.086
-9.53,-4.94,3.79,50.166
-9.53,-4.94,3.79,50.245
-8,-5.66,2.97,50.321
-9.21,-4.33,2.21,50.4
-9.55,-4.17,2.28,50.477
-9.55,-4.17,2.28,50.556
-9.55,-4.17,2.28,50.633
-9.55,-4.17,2.28,50.709
-9.55,-4.17,2.28,50.793
-9.55,-4.17,2.28,50.873
-9.55,-4.17,2.28,50.954
-9.55,-4.17,2.28,51.032
-10.58,-3.26,2.65,51.152
-10.02,-2.62,2.21,51.23
-10.24,-2.16,1.92,51.308
-10.24,-2.16,1.92,51.388
-10.24,-2.16,1.92,51.47
-10.24,-2.16,1.92,51.547
-10.24,-2.16,1.92,51.628
-10.24,-2.16,1.92,51.712
-10.24,-2.16,1.92,51.79
-10.24,-2.16,1.92,51.87
-10.06,-2.29,2.09,51.948
-9.68,-2.79,2.54,52.032
-9.6,-2.64,3.02,52.111
-9.6,-2.64,3.02,52.192
-9.6,-2.64,3.02,52.282
-9.6,-2.64,3.02,52.359
-9.6,-2.64,3.02,52.443
-9.6,-2.64,3.02,52.523
-9.6,-2.64,3.02,52.605
-9.6,-2.64,3.02,52.686
-9.99,-1.83,2.68,52.766
-10.98,-1.71,2.43,52.843
-11.51,-1.57,1.99,52.925
-11.51,-1.57,1.99,53.006
-11.51,-1.57,1.99,53.085
-11.51,-1.57,1.99,53.163
-11.51,-1.57,1.99,53.247
-11.51,-1.57,1.99,53.331
-11.51,-1.57,1.99,53.412
-11.51,-1.57,1.99,53.492
-11.3,-2.26,2.05,53.568
-11.6,-2.18,2.62,53.65
-11.34,-2.59,3.35,53.729
-11.34,-2.59,3.35,53.811
-11.34,-2.59,3.35,53.889
-11.34,-2.59,3.35,53.969
-11.34,-2.59,3.35,54.051
-11.34,-2.59,3.35,54.129
-11.34,-2.59,3.35,54.209
-11.34,-2.59,3.35,54.293
-11.36,-2.26,3.11,54.374
-11.3,-1.82,2.33,54.457
-12.03,-1.69,1.36,54.537
-12.03,-1.69,1.36,54.621
-12.03,-1.69,1.36,54.631
-12.03,-1.69,1.36,54.753
-12.03,-1.69,1.36,54.881
-12.03,-1.69,1.36,54.968
-12.03,-1.69,1.36,55.044
-12.03,-1.69,1.36,55.127
-12.62,-1.79,2.09,55.206
-12.62,-1.6,2.99,55.288
-12.08,-3.47,4.65,55.371
-12.08,-3.47,4.65,55.454
-12.08,-3.47,4.65,55.538
-12.08,-3.47,4.65,55.618
-12.08,-3.47,4.65,55.701
-12.08,-3.47,4.65,55.78
-12.08,-3.47,4.65,55.866
-12.08,-3.47,4.65,55.948
-12.85,-3.84,4.13,56.026
-12.81,-5.37,2.99,56.106
-11.96,-3.61,2.24,56.19
-11.96,-3.61,2.24,56.271
-11.96,-3.61,2.24,56.353
-11.96,-3.61,2.24,56.432
-11.96,-3.61,2.24,56.515
-11.96,-3.61,2.24,56.597
-11.96,-3.61,2.24,56.679
-11.96,-3.61,2.24,56.761
-11.1,-3.57,2.84,56.847
-10.74,-3.88,4.03,56.933
-10.62,-4.13,3.14,57.014
-10.62,-4.13,3.14,57.026
-10.62,-4.13,3.14,57.156
-10.62,-4.13,3.14,57.243
-10.62,-4.13,3.14,57.32
-10.62,-4.13,3.14,57.401
-10.62,-4.13,3.14,57.479
-10.62,-4.13,3.14,57.567
-11,-4.03,2.18,57.644
-11.73,-3.57,1.28,57.726
-11.69,-3.5,2.21,57.807
-11.69,-3.5,2.21,57.89
-11.69,-3.5,2.21,57.975
-11.69,-3.5,2.21,58.053
-11.69,-3.5,2.21,58.133
-11.69,-3.5,2.21,58.214
-11.69,-3.5,2.21,58.298
-11.69,-3.5,2.21,58.381
-11.38,-3.54,3.13,58.461
-10.87,-3.9,4.26,58.547
-10.59,-3.82,3.2,58.632
-10.59,-3.82,3.2,58.639
-10.59,-3.82,3.2,58.718
-10.59,-3.82,3.2,58.846
-10.59,-3.82,3.2,58.932
-10.59,-3.82,3.2,59.009
-10.59,-3.82,3.2,59.093
-10.59,-3.82,3.2,59.178
-10.17,-2.88,2.62,59.257
-11.4,-2.52,1.7,59.341
-11.89,-3.41,2.38,59.422
-11.89,-3.41,2.38,59.502
-11.89,-3.41,2.38,59.582
-11.89,-3.41,2.38,59.665
-11.89,-3.41,2.38,59.748
-11.89,-3.41,2.38,59.83
-11.89,-3.41,2.38,59.912
-11.89,-3.41,2.38,59.997
-11.41,-4.79,2.52,60.076
-10.08,-4.24,2.38,60.162
-10.46,-3.62,2.41,60.244
-10.46,-3.62,2.41,60.328
-10.46,-3.62,2.41,60.409
-10.46,-3.62,2.41,60.492
-10.46,-3.62,2.41,60.572
-10.46,-3.62,2.41,60.654
-10.46,-3.62,2.41,60.664
-10.46,-3.62,2.41,60.747
-10.72,-3.2,2.31,60.83
-10.63,-3.11,2.46,60.964
-10.71,-3.02,2.55,60.974
-10.71,-3.02,2.55,61.105
-10.71,-3.02,2.55,61.189
-10.71,-3.02,2.55,61.268
-10.71,-3.02,2.55,61.399
-10.71,-3.02,2.55,61.415
