,,,
Time [sec],ACC X,ACC Y,ACC Z
348202,-10.04201,-1.412158,0.980665
348283,-10.15969,-1.647517,0.862985
348364,-10.04201,-1.804424,0.823759
348445,-10.04201,-1.804424,0.745305
348526,-10.04201,-1.84365,0.823759
348607,-10.04201,-1.725971,0.745305
348688,-10.04201,-1.686744,0.745305
348769,-10.081236,-1.686744,0.745305
348850,-10.002784,-1.529837,0.706079
348931,-9.885103,-1.490611,0.784532
349012,-10.198917,-0.941438,0.666852
349093,-9.728197,-1.96133,1.059118
349174,-9.885103,-1.098345,0.745305
349255,-10.39505,-0.862985,1.059118
349336,-10.355823,-1.529837,0.902212
349417,-10.355823,-1.019892,0.274586
349498,-9.179025,-2.824315,-0.078453
349579,-10.74809,-2.941995,2.19669
349660,-11.493395,0.588399,3.098902
349741,-8.590626,-0.196133,2.510503
349822,-7.727641,-0.509946,3.334261
349903,-7.296148,-0.039227,2.785089
349984,-9.453611,-2.941995,2.392823
350065,-11.140355,0.156906,3.961887
350146,-11.297261,-3.569621,3.020448
350227,-7.296148,-2.745862,0.666852
350308,-10.04201,-2.471276,1.451384
350389,-9.924331,-0.784532,0.039227
350470,-8.66908,-0.549172,0
350551,-9.218252,-1.255251,-0.078453
350632,-10.120463,-1.216025,0.274586
350713,-11.218808,-0.745305,1.686744
350794,-13.415498,-4.04034,-2.432049
350875,-11.336488,-5.374045,2.902768
350956,-11.728755,1.333704,-0.902212
351037,-7.021562,-1.019892,1.255251
351118,-5.295591,1.137571,1.882877
351199,-8.472946,-0.941438,2.863542
351280,-11.650301,-0.823759,5.609404
351361,-11.493395,1.96133,0.156906
351442,-8.786758,-4.942552,1.725971
351523,-9.022119,-1.294478,1.216025
351604,-8.041453,-2.902768,0.196133
351685,-8.394493,-0.549172,0.274586
351766,-9.414385,-0.11768,-0.392266
351847,-11.611073,-0.392266,-0.470719
352576,-10.434276,-6.629296,1.608291
352657,-8.276814,1.569064,0.23536
352738,-8.43372,-2.745862,0
352819,-7.923774,-0.666852,-0.353039
352900,-9.845878,-0.470719,-0.666852
352981,-10.238143,-0.156906,0.078453
353062,-13.101686,-1.647517,0.862985
353143,-10.04201,-6.511616,-1.019892
353224,-12.081794,-2.667409,2.706636
353305,-9.139798,1.725971,-0.431493
353386,-5.334818,-0.509946,1.647517
353467,-5.727084,1.294478,2.745862
353548,-11.218808,-0.823759,-2.628182
353629,-10.63041,1.882877,2.863542
353710,-15.533735,-7.806094,-0.980665
353791,-9.139798,-0.627626,-0.156906
353872,-10.904996,-3.530394,-0.392266
353953,-6.590069,-0.706079,0.353039
354034,-10.002784,-0.039227,-0.353039
354115,-10.669636,-1.647517,0.509946
354196,-12.395606,-1.294478,3.373488
354277,-8.472946,-3.883434,-1.059118
354358,-14.356936,-4.785645,3.177355
354439,-9.649744,0.431493,0
354520,-6.11935,0.509946,1.333704
354601,-5.76631,-0.431493,2.902768
354682,-8.747532,-0.666852,-1.137571
354763,-12.042567,0.078453,2.941995
354844,-13.337045,-4.354153,1.294478
354925,-9.492838,-0.823759,-0.941438
355006,-10.865768,-3.765754,0.313813
355087,-6.825429,-2.000557,0.509946
355168,-9.179025,-0.470719,-0.274586
355249,-8.904439,-0.862985,0.902212
355330,-10.787315,1.96133,-0.549172
355411,-12.317153,-4.118793,-1.922104
355492,-14.31771,-6.00167,1.686744
355573,-8.31604,0.902212,-0.902212
355654,-6.393936,-0.23536,0.745305
355735,-6.197803,0,3.098902
355816,-7.217695,0.274586,1.098345
355897,-11.53262,-0.706079,5.844764
355978,-12.827099,-0.941438,0.353039
356059,-6.629296,-0.745305,-0.196133
356140,-12.47406,-4.432606,0.313813
356221,-5.962444,-2.432049,0.431493
356302,-9.532064,0.039227,-0.549172
356383,-9.924331,-1.333704,0.941438
356464,-10.120463,2.745862,0.392266
356545,-10.51273,-4.707192,-1.725971
356626,-13.023232,-5.88399,2.902768
356707,-9.767424,0.784532,-0.470719
356788,-5.805537,-0.941438,0.902212
356869,-5.88399,0.588399,2.745862
356950,-7.453054,0.078453,-1.647517
357031,-11.336488,-1.451384,4.667965
357112,-12.944778,-3.412714,0
357193,-7.766868,-0.431493,-0.353039
357274,-11.414941,-3.569621,-0.274586
357355,-6.982335,-1.765197,0.470719
357436,-9.257479,-0.470719,-0.470719
357517,-9.610518,-1.294478,1.686744
357598,-10.983448,0.980665,1.96133
357679,-8.237586,-4.471833,-0.627626
357760,-15.063015,-4.942552,2.588956
358410,-12.905553,-3.412714,-0.470719
358491,-6.354709,-2.667409,0.706079
358572,-9.257479,-0.549172,-0.588399
359463,-9.100572,-2.039783,-0.509946
359544,-10.983448,-3.491168,0.470719
360921,-10.355823,-0.431493,1.176798
361002,-11.061902,0.509946,1.529837
361083,-10.904996,-3.334261,-2.157463
361164,-13.337045,-7.178468,1.96133
361245,-9.80665,1.255251,-0.784532
361326,-6.590069,-0.392266,0.353039
361407,-5.530951,-0.588399,2.745862
361488,-8.08068,0,1.451384
361569,-12.47406,-2.432049,5.021005
361650,-12.395606,-0.784532,-0.23536
361731,-7.296148,0,0.039227
361812,-11.493395,-4.118793,0.862985
361893,-6.433163,-2.07901,-0.23536
361974,-9.218252,-0.23536,0.156906
362055,-9.453611,-0.470719,1.137571
362136,-11.179583,1.569064,1.333704
362217,-11.258035,-4.236473,-2.039783
362298,-11.767981,-7.413828,3.334261
362379,-10.04201,2.471276,-0.509946
362460,-5.923217,0.11768,0.627626
362541,-5.844764,-0.509946,3.255808
362622,-7.374601,0.627626,-0.156906
362703,-11.964113,-2.785089,3.020448
362784,-11.964113,-4.432606,0.627626
362865,-8.551399,0.549172,-0.470719
362946,-10.081236,-3.961887,0.745305
363027,-7.531507,-1.725971,-0.23536
363108,-8.747532,-0.313813,-0.11768
363189,-10.04201,-0.902212,1.059118
363270,-11.964113,0.862985,2.039783
363351,-9.492838,-5.060232,-1.333704
363432,-13.376271,-7.217695,3.216581
363513,-9.492838,1.765197,-1.255251
363594,-5.805537,-0.470719,0.196133
363675,-6.315483,-0.627626,2.902768
363756,-7.531507,0.941438,1.216025
363837,-10.39505,-0.156906,4.785645
363918,-14.396163,-3.295035,0.392266
363999,-7.492281,-0.549172,-0.470719
364080,-12.081794,-4.354153,0.392266
364161,-6.354709,-1.96133,0.470719
364242,-10.04201,-1.098345,-0.078453
364323,-9.257479,-0.862985,1.216025
364404,-10.473503,2.510503,1.059118
364485,-9.610518,-3.80498,-1.333704
364566,-14.474616,-6.786202,2.392823
364647,-8.943666,1.529837,-0.627626
364728,-6.629296,-0.039227,0.274586
364809,-6.433163,-1.176798,3.255808
364890,-6.472389,2.039783,-0.11768
364971,-12.042567,-1.922104,3.883434
365052,-9.767424,-1.176798,0.392266
365133,-9.571291,-0.627626,-0.823759
365214,-10.238143,-3.648074,0.509946
365295,-6.511616,-2.039783,0.392266
365376,-8.747532,0.156906,-0.23536
365457,-10.355823,-0.196133,1.098345
365538,-10.27737,1.255251,0.666852
365619,-11.297261,-3.412714,-2.392823
365700,-12.434833,-7.060789,2.667409
365781,-10.355823,0.902212,-1.137571
365862,-5.88399,-0.353039,0.509946
365943,-5.962444,-0.313813,2.549729
366024,-7.884547,-0.078453,2.118237
366105,-11.414941,-1.333704,5.217138
366186,-14.082351,-1.647517,0.431493
367158,-7.688414,-0.823759,2.549729
367239,-13.219365,-0.078453,3.961887
367320,-12.160246,-0.392266,-0.274586
367401,-8.43372,-2.31437,0.196133
367482,-11.258035,-3.530394,0.941438
367563,-6.354709,-2.863542,0.11768
367644,-8.747532,-0.078453,-0.196133
367725,-10.002784,0,0.706079
367806,-11.297261,1.529837,-0.313813
367887,-12.709418,-4.04034,-2.157463
367968,-13.493951,-6.864655,2.07901
368049,-9.688971,1.098345,-0.588399
368130,-7.453054,-0.470719,0.470719
368211,-5.88399,-1.294478,3.020448
368292,-6.943109,1.569064,1.686744
368373,-14.20003,-2.392823,4.550286
368454,-14.356936,-0.23536,-0.078453
368535,-6.629296,-1.372931,-0.156906
368616,-10.865768,-3.961887,0.784532
368697,-6.746975,-1.569064,0.196133
368778,-9.571291,-0.039227,-0.313813
368859,-9.453611,-0.941438,1.255251
368940,-10.944222,1.255251,-0.431493
369021,-12.160246,-3.491168,-2.039783
369102,-13.846991,-7.531507,2.588956
369183,-10.198917,1.059118,-1.569064
369264,-8.002227,-0.706079,0.784532
369345,-5.256365,-0.588399,2.235916
369426,-5.923217,0.902212,1.176798
369507,-20.005568,-4.981779,5.609404
369588,-13.219365,-0.588399,-0.11768
369669,-6.982335,-1.255251,0.588399
369750,-11.258035,-2.981222,1.255251
369831,-7.178468,-2.353596,-0.156906
369912,-7.923774,-0.392266,0
369993,-9.845878,0.549172,0.156906
370074,-11.571848,0.078453,-0.902212
370155,-14.278483,-3.412714,-2.275143
370236,-13.454725,-6.746975,1.647517
370317,-9.571291,-0.23536,0.196133
370398,-7.884547,-0.23536,0.784532
370479,-5.570178,-1.019892,3.216581
370560,-5.962444,1.529837,0.980665
370641,-15.769094,-2.275143,5.177911
370722,-13.96467,0.274586,-0.784532
370803,-6.393936,-0.823759,0.509946
370884,-11.611073,-4.667965,1.059118
370965,-7.374601,-2.432049,-0.039227
371046,-7.492281,0.313813,-0.313813
371127,-10.27737,-0.627626,0.627626
371208,-11.846434,-0.509946,0.11768
371289,-13.690084,-3.020448,-2.235916
371370,-13.140911,-5.88399,1.647517
371451,-9.924331,-0.862985,-0.353039
371532,-8.041453,-0.470719,0.588399
371613,-5.256365,-0.666852,3.451941
371694,-5.76631,2.000557,0.196133
371775,-19.770206,-5.021005,5.962444
371856,-12.630966,-1.451384,-0.588399
371937,-6.511616,-1.176798,0.902212
372018,-11.297261,-3.138128,1.137571
372666,-7.296148,-0.392266,0.588399
372747,-5.177911,-1.490611,2.353596
372828,-6.00167,1.686744,0.509946
372909,-19.966339,-4.707192,4.667965
372990,-12.866325,1.412158,-0.23536
373071,-6.472389,-1.96133,0.823759
373152,-10.787315,-3.138128,0.941438
373233,-7.374601,-3.020448,-0.313813
373314,-7.374601,-0.509946,-0.078453
373395,-10.591183,1.137571,-0.23536
373476,-11.88566,-0.509946,-1.019892
373557,-13.650858,-3.687301,-1.725971
373638,-14.906109,-6.746975,0.941438
373719,-9.924331,-0.23536,0.039227
373800,-8.041453,-0.274586,0.706079
373881,-4.942552,-0.11768,2.628182
373962,-6.511616,1.804424,0.392266
374043,-16.592852,-4.15802,4.589512
374124,-13.533178,-1.922104,-0.862985
374205,-9.100572,-1.490611,-0.156906
374286,-11.88566,-3.177355,1.412158
374367,-7.060789,-2.745862,-0.11768
374448,-7.84532,-0.706079,-0.23536
374529,-10.316596,-0.274586,0.627626
374610,-11.493395,0.588399,-0.627626
374691,-12.709418,-3.648074,-2.863542
374772,-13.219365,-7.021562,1.882877
374853,-11.375715,0.392266,-0.313813
374934,-6.864655,-0.353039,0.862985
375015,-5.374045,0.353039,2.902768
375096,-5.844764,0.666852,1.608291
375177,-14.788428,-2.07901,5.334818
375258,-13.023232,0.470719,-0.549172
375339,-7.100015,-1.216025,0.392266
375420,-11.375715,-3.687301,1.372931
375501,-7.139242,-2.471276,0.156906
375582,-8.512173,0.274586,-0.11768
375663,-10.316596,-0.353039,0.745305
375744,-10.708862,1.019892,0.313813
375825,-11.336488,-3.334261,-2.628182
375906,-13.572405,-7.178468,3.138128
375987,-10.15969,1.529837,-1.098345
376068,-6.629296,-0.509946,0.784532
376149,-5.923217,0.156906,2.824315
376230,-8.198359,-0.431493,2.824315
376311,-11.179583,-2.039783,4.864099
376392,-12.160246,-1.804424,0.941438
376473,-8.747532,-0.392266,-1.098345
376554,-10.238143,-4.628739,1.294478
376635,-6.982335,-2.039783,0.11768
376716,-8.198359,0,0.23536
376797,-10.238143,-0.392266,1.137571
376878,-10.944222,1.333704,1.216025
376959,-11.767981,-3.765754,-2.863542
377040,-12.905553,-7.335374,2.628182
377121,-10.39505,1.922104,-0.549172
377202,-6.825429,-1.294478,1.216025
377283,-4.903325,-0.392266,2.706636
377364,-6.786202,1.490611,0.980665
377445,-14.003898,-1.647517,5.217138
377526,-12.395606,0.784532,-0.941438
377607,-7.178468,-2.667409,0.823759
377688,-12.003341,-3.177355,1.412158
377769,-6.315483,-2.471276,0.313813
377850,-8.982892,-0.431493,-0.078453
377931,-10.51273,-0.156906,0.431493
378579,-12.2387,-1.098345,5.530951
378660,-14.278483,-0.666852,-0.470719
378741,-5.923217,-0.902212,0.666852
378822,-12.787872,-3.80498,0.823759
378903,-6.825429,-2.471276,0.392266
378984,-8.825986,0.196133,-0.23536
379065,-10.04201,0,0.23536
379146,-10.74809,0.470719,-1.216025
379227,-12.59174,-2.981222,-2.785089
379308,-14.709976,-6.629296,2.157463
379389,-11.846434,-0.862985,-0.196133
379470,-6.982335,-0.039227,0.470719
379551,-4.707192,-1.059118,2.471276
379632,-5.805537,0.588399,0.706079
379713,-16.200586,-2.118237,4.197247
379794,-13.572405,-0.980665,-0.666852
379875,-6.23703,-1.451384,0.745305
379956,-12.042567,-3.177355,0.549172
380037,-6.315483,-2.588956,0.23536
380118,-8.31604,-0.039227,-0.353039
380199,-10.120463,-0.039227,0.980665
380280,-10.198917,1.765197,0.313813
380361,-10.316596,-4.236473,-1.922104
380442,-13.846991,-7.531507,3.059675
380523,-9.924331,1.412158,-1.333704
380604,-6.040897,-1.137571,0.588399
380685,-6.040897,-0.470719,3.098902
380766,-6.668522,1.412158,0.784532
380847,-13.768538,-1.098345,2.745862
380928,-12.944778,-1.176798,-0.313813
381009,-7.806094,-0.431493,-0.156906
381090,-11.022676,-3.608848,0.196133
381171,-6.080123,-2.039783,0.039227
381252,-8.512173,0.078453,-0.431493
381333,-10.904996,-0.039227,1.176798
381414,-10.74809,0.627626,2.471276
381495,-9.022119,-5.374045,-1.216025
381576,-12.552513,-6.590069,3.373488
381657,-10.434276,2.118237,-1.059118
381738,-5.021005,-0.666852,0.470719
381819,-6.825429,0.23536,3.373488
381900,-9.453611,0.745305,-0.588399
381981,-14.513843,-0.980665,3.883434
382062,-10.434276,-5.374045,1.019892
382143,-9.218252,0.156906,-0.509946
382224,-9.100572,-3.648074,0.353039
382305,-7.453054,-0.627626,-0.274586
382386,-9.80665,-0.156906,-0.039227
382467,-11.88566,-1.098345,0.039227
382548,-15.337602,-1.765197,0.745305
382629,-11.218808,-6.590069,-0.156906
382710,-10.944222,-4.236473,1.765197
382791,-11.061902,1.412158,-0.509946
382872,-5.099459,0.313813,0.509946
382953,-6.629296,0,3.098902
383034,-12.748646,-1.294478,-0.627626
383115,-14.043123,-0.313813,3.726527
383196,-11.571848,-7.021562,-0.353039
383277,-9.414385,0.627626,-0.11768
383358,-10.238143,-4.511059,0.313813
383439,-5.88399,-0.588399,0.156906
383520,-8.355267,-0.353039,-0.039227
383601,-10.434276,0.745305,0.588399
383682,-14.003898,-1.84365,1.490611
383763,-13.846991,-7.688414,-0.549172
383844,-10.39505,-2.549729,1.216025
386420,-3.726527,1.647517,-2.19669
386501,-12.787872,-1.765197,3.92266
387392,-4.903325,-0.392266,0.784532
387473,-6.746975,-0.039227,2.863542
387554,-4.589512,0.470719,-0.745305
387635,-13.140911,-2.549729,2.981222
387716,-11.53262,-4.824872,2.235916
387797,-8.66908,0.902212,-1.019892
387878,-9.845878,-4.511059,1.294478
387959,-6.982335,-0.23536,-0.431493
388040,-9.610518,-0.431493,-0.156906
388121,-9.375158,-1.529837,1.529837
388202,-12.47406,0.470719,2.353596
388283,-8.943666,-4.314926,-1.647517
388364,-14.082351,-6.746975,3.334261
388445,-9.845878,2.510503,-1.059118
388526,-5.138685,-0.196133,0.509946
388607,-7.217695,-0.470719,3.373488
388688,-6.864655,1.216025,0.470719
388769,-13.454725,-2.275143,3.334261
388850,-10.15969,-4.118793,1.216025
388931,-9.532064,0.666852,-0.902212
389012,-9.845878,-4.2757,0.784532
389093,-6.629296,-2.000557,0.274586
389174,-8.747532,0.274586,-0.039227
389255,-10.27737,-0.784532,1.333704
389336,-11.964113,0.353039,2.588956
389417,-10.473503,-3.765754,-2.000557
389498,-12.944778,-7.570734,3.059675
389579,-9.218252,2.07901,-1.137571
389660,-5.844764,-0.11768,0.784532
389741,-6.040897,0.039227,2.941995
389823,-7.413828,0.313813,1.019892
389904,-13.533178,-3.295035,3.883434
389985,-10.944222,-3.059675,0.941438
390066,-8.43372,1.098345,-0.823759
390147,-9.414385,-4.667965,0.902212
390228,-7.217695,-0.902212,0.11768
390309,-9.767424,-0.509946,-0.392266
390390,-10.944222,-1.333704,0.941438
390471,-13.690084,-0.509946,1.96133
390552,-10.120463,-5.452498,-0.823759
390633,-10.826543,-5.217138,1.96133
390714,-10.434276,1.922104,-0.666852
390795,-4.746419,-0.862985,1.137571
390876,-7.178468,0.823759,2.471276
390957,-9.335931,-1.451384,-1.294478
391038,-14.20003,-0.23536,4.903325
391119,-12.395606,-6.393936,1.412158
391200,-7.649188,0,-0.078453
391281,-9.845878,-3.451941,0.078453
391362,-7.100015,-0.823759,0.11768
391443,-9.257479,-0.156906,0.274586
391524,-10.551956,-0.666852,1.059118
391605,-10.551956,0.549172,2.471276
391686,-8.943666,-4.824872,-1.059118
391767,-12.905553,-5.060232,2.353596
391848,-10.081236,1.372931,-0.196133
391929,-5.256365,-0.23536,0.666852
392010,-6.550843,-0.274586,2.941995
392091,-5.256365,0.313813,-0.627626
392172,-14.55307,-1.059118,4.236473
392253,-12.12102,-5.099459,1.412158
392334,-7.806094,0.431493,0
392415,-9.610518,-3.80498,0.470719
392496,-6.550843,-1.019892,0.156906
392577,-9.885103,-0.274586,-0.353039
393225,-12.709418,-3.255808,-0.313813
393306,-12.866325,1.412158,2.981222
393387,-10.238143,-6.511616,0.980665
395320,-5.334818,-0.549172,1.019892
395725,-7.453054,0.862985,-0.23536
395806,-10.238143,-3.844207,-0.11768
395887,-7.139242,-0.784532,0.470719
395968,-9.414385,-0.039227,-0.431493
396049,-9.767424,-0.941438,1.098345
396130,-12.434833,-0.588399,2.235916
396211,-9.610518,-4.550286,-1.647517
396292,-12.395606,-4.746419,2.549729
396373,-9.80665,1.647517,-0.470719
396454,-4.903325,-0.470719,0.588399
396535,-6.393936,0.039227,2.353596
396616,-5.88399,-0.353039,-0.627626
396697,-14.239256,-1.451384,4.432606
396778,-14.278483,-4.432606,1.569064
396859,-8.002227,-0.274586,-0.549172
396940,-10.120463,-3.491168,0.313813
397021,-6.982335,-0.980665,0.353039
397102,-9.414385,-0.431493,0
397183,-9.571291,-0.627626,1.176798
397264,-11.258035,1.451384,1.059118
397345,-10.15969,-4.903325,-1.96133
397426,-11.88566,-7.531507,3.491168
397507,-10.63041,2.432049,-1.255251
397588,-5.295591,-0.039227,0.470719
397669,-6.511616,0.156906,2.31437
397750,-5.923217,0.11768,-0.156906
397831,-11.689528,-1.529837,3.059675
397912,-13.807764,-3.92266,1.451384
397993,-8.08068,-0.23536,-0.941438
398074,-10.551956,-3.726527,0.627626
398155,-6.903882,-1.216025,0.353039
398236,-9.414385,-0.862985,-0.156906
398317,-9.414385,-0.627626,1.451384
398398,-11.218808,1.255251,1.216025
398479,-10.551956,-4.15802,-1.725971
398560,-11.767981,-7.492281,3.255808
398641,-10.473503,1.765197,-0.745305
398722,-5.374045,-0.156906,0.470719
398803,-6.707749,-0.039227,2.824315
398884,-6.080123,0.11768,-0.313813
398965,-11.454168,-1.372931,2.785089
399046,-12.081794,-0.784532,1.333704
399127,-8.31604,-1.84365,-0.392266
399208,-11.101129,-4.118793,1.137571
399289,-6.629296,-1.84365,0.039227
399370,-9.492838,-0.353039,-0.353039
399451,-9.80665,-0.706079,1.608291
399532,-10.473503,1.372931,0.902212
399613,-10.316596,-4.2757,-1.412158
399694,-12.59174,-7.178468,3.373488
399775,-10.591183,1.608291,-0.902212
399856,-5.648631,-0.11768,0.431493
399937,-6.433163,-0.392266,2.863542
400018,-5.413271,0.902212,0.549172
400099,-10.944222,-1.451384,4.236473
400180,-13.533178,-1.804424,0.353039
400261,-7.727641,0.156906,-0.627626
400342,-10.944222,-4.393379,0.980665
400423,-6.550843,-1.96133,0.392266
400504,-9.767424,-0.392266,-0.23536
400585,-9.610518,-0.666852,1.569064
400666,-10.787315,0.902212,1.176798
400747,-10.983448,-3.92266,-1.922104
400828,-11.179583,-7.727641,3.883434
400909,-10.708862,1.608291,-0.627626
400990,-6.00167,0.078453,0.980665
401557,-7.609961,-2.07901,-0.11768
401638,-9.218252,-0.196133,0.196133
401719,-9.885103,0.11768,0.627626
401800,-10.904996,1.059118,-0.509946
401881,-13.768538,-3.334261,-2.000557
401962,-12.199473,-6.707749,2.785089
402043,-11.336488,1.098345,-0.392266
402124,-7.296148,0.274586,1.019892
402205,-5.88399,0.156906,2.235916
402286,-5.570178,1.059118,1.569064
402367,-18.750317,-2.588956,4.824872
402448,-11.179583,1.96133,-0.078453
402529,-7.217695,-2.628182,1.725971
402610,-9.571291,-2.706636,1.725971
402691,-7.727641,-1.96133,-0.470719
402772,-9.335931,-0.23536,0.078453
402853,-9.845878,0,0.549172
402934,-11.297261,-0.784532,-0.431493
403015,-14.474616,-3.098902,0
403096,-12.160246,-6.550843,0.313813
403177,-9.845878,-0.549172,-0.431493
403258,-9.061345,-0.588399,0.666852
403339,-5.570178,-0.313813,1.882877
403420,-7.296148,0.706079,1.765197
403501,-20.005568,-5.374045,6.746975
403582,-11.414941,0.509946,2.07901
403663,-8.865212,-3.92266,0.509946
403744,-9.453611,0.196133,1.098345
403825,-8.198359,-2.902768,-0.196133
403906,-7.923774,-0.039227,-0.196133
403987,-10.39505,0.706079,-0.196133
404068,-11.336488,-0.862985,-0.980665
404149,-15.141468,-3.020448,-0.627626
404230,-11.846434,-6.903882,0.706079
404311,-10.120463,-0.470719,0.11768
404392,-8.943666,-0.549172,1.019892
404473,-5.138685,-0.706079,2.039783
404554,-7.060789,1.216025,2.432049
404635,-20.005568,-5.805537,5.334818
404716,-12.003341,0.862985,2.392823
404797,-9.296705,-5.609404,0.196133
404878,-6.982335,0.470719,1.255251
404959,-9.453611,-1.922104,-0.313813
405040,-7.374601,-0.313813,0.196133
405121,-9.80665,0.274586,-0.313813
405202,-11.218808,-1.294478,0.470719
405283,-15.023788,-2.157463,0.588399
405364,-12.042567,-6.080123,-0.23536
405445,-10.551956,-2.510503,1.216025
405526,-10.473503,0.784532,0.470719
405607,-5.177911,-0.156906,0.902212
405688,-6.354709,0.627626,2.31437
405769,-15.926001,-3.765754,-1.608291
405850,-14.239256,1.019892,2.118237
405931,-8.708306,-5.099459,0.392266
406012,-8.31604,0.706079,0.353039
406093,-8.629852,-3.255808,0.039227
406174,-7.923774,-0.196133,-0.11768
406255,-10.002784,-0.627626,-0.313813
406336,-10.120463,-0.862985,0.274586
406417,-13.650858,-2.745862,1.725971
406498,-10.551956,-4.707192,-1.137571
406579,-10.904996,-4.2757,1.765197
