"NAME:","idan_walk_2"
"EXPERIMENT TIME:","Thu Jun 01 11:48:04 GMT+03:00 2023"
"ACTIVITY TYPE:","Walking"
"COUNTS OF ACTUAL STEPS:","102"
"  "," "
"Time [sec]","ACC X","ACC Y","ACC Z"
"0","-8.87","-4.39","-2.39"
"0.07549747200000001","-9.34","-3.61","-2.08"
"0.142606336","-9.96","-3.73","-2.24"
"0.285212672","-9.18","-3.57","-0.51"
"0.40265318400000005","-11.69","-9.18","-4.86"
"0.411041792","-4.94","-5.45","-6.51"
"0.54525952","-10.98","-4.24","-4.75"
"0.6543114240000001","-7.22","-2.51","-3.26"
"0.6543114240000001","-8.28","-0.20","-3.22"
"0.855638016","-8.59","-1.57","-2.31"
"0.931135488","-9.92","-2.24","-2.08"
"1.015021568","-13.77","-0.43","-1.96"
"1.023410176","-14.55","0.98","-6.63"
"1.149239296","-9.41","-2.59","-6.08"
"1.283457024","-9.96","-3.45","-4.28"
"1.291845632","-7.37","-2.35","-2.43"
"1.3589544960000002","-7.53","-3.02","-2.31"
"1.5183380480000002","-8.20","-3.49","-1.29"
"1.5183380480000002","-10.51","-3.88","-2.79"
"1.585446912","-9.57","-5.10","-1.80"
"1.660944384","-10.04","-6.51","-7.34"
"1.694498816","-15.14","-2.08","-2.28"
"1.7783848960000002","-4.90","-3.37","-3.49"
"1.84549376","-8.20","-0.20","-2.51"
"2.34881024","-8.79","-1.77","-1.84"
"2.3571988480000003","-10.59","-1.61","-3.26"
"2.8521267200000002","-11.41","-0.31","0.59"
"3.347054592","-15.69","-0.51","-7.49"
"3.363831808","-9.85","-3.73","-3.92"
"3.8419824640000004","-7.61","-0.59","-3.92-7.14"
"3.850371072","-9.77","-2.67","-8.04"
"4.3452989440000005","-12.28","-3.77","-3.37"
"4.353687552","-6.12","-1.45","-2.39"
"4.848615424","-7.45","-2.90","-2.28-8.24"
"5.343543296","-9.06","-1.22","-2.98"
"5.36870912","-14.98","-0.39","-1.06"
"5.377097728000001","-15.46","-0.08","-6.63"
"5.377097728000001","-7.73","-3.37","-6.94-9.69"
"5.427429376","-7.22","-0.63","-3.06"
"5.502926848","-7.69","-0.78","-1.06"
"5.595201536","-9.41","-1.80","-4.28"
"5.6623104","-11.10","-1.84","0.55"
"5.754585088000001","-15.97","0.12","-6.24"
"5.83008256","-10.43","-4.04","-3.84"
"5.9055800320000005","-7.06","-1.37","-4.35"
"6.039797760000001","-7.41","-2.51","-2.67"
"6.1069066240000005","-7.81","-2.86","-1.57"
"6.148849664","-9.49","-3.37","-1.57"
"6.232735744","-11.45","-6.00","-1.53"
"6.299844608000001","-11.85","-10.51","-5.61"
"6.400507904","-6.67","-5.77","-8.39"
"6.484393984","-11.45","-3.53","-4.24"
"6.5682800640000005","-5.69","-2.28","-3.45"
"6.635388928","-8.71","-0.55","-2.98"
"6.719275008","-8.55","-1.33","-1.96"
"6.794772480000001","-9.30","-1.77","-3.37"
"6.9206016","-12.20","-1.10","-0.94"
"6.996099072000001","-18.48","0.51","-8.20"
"7.063207936","-8.87","-2.51","-4.55"
"7.1303168","-8.67","-1.37","-5.10"
"7.222591488000001","-7.53","-2.79","-3.02"
"7.281311744000001","-8.24","-2.63","-2.28"
"7.38197504","-8.20","-3.30","-2.55"
"7.440695296","-11.65","-3.41","-4.00"
"7.532969984","-9.34","-4.47","-2.35"
"7.600078848000001","-10.12","-8.12","-7.81"
"7.7259079680000005","-13.22","-2.51","-3.96"
"7.793016832","-6.75","-4.47","-4.24"
"7.8685143040000005","-7.57","-0.90","-3.84"
"7.935623168","-9.73","-0.90","-2.20"
"8.01112064","-8.16","-1.18","-0.98"
"8.086618112","-12.51","-3.65","-3.53"
"8.170504192000001","-11.22","-0.24","-3.30"
"8.246001664000001","-15.18","-0.55","-9.34"
"8.338276352000001","-10.90","-4.51","-2.71"
"8.413773824","-8.55","-0.98","-4.59"
"8.506048512000001","-7.02","-2.35","-3.53"
"8.598323200000001","-8.36","-3.37","-2.47"
"8.698986496","-8.32","-3.06","-1.80"
"8.766095360000001","-10.98","-5.61","-3.80"
"8.841592832","-13.57","-5.57","-4.04"
"8.908701696000001","-8.90","-5.49","-7.57"
"8.992587776","-10.75","-2.94","-4.04"
"9.05969664","-7.34","-4.28","-3.61"
"9.151971328","-7.65","-0.31","-2.75"
"9.235857408000001","-7.49","-0.86","-2.35"
"9.319743488","-9.65","-2.51","-3.14"
"9.378463744000001","-11.26","-0.59","0.16"
"9.462349824","-15.85","-1.29","-6.24"
"9.554624512","-9.61","-3.14","-3.88"
"9.630121984","-8.98","-1.06","-4.39"
"9.705619456","-7.22","-2.94","-3.26"
"9.848225792000001","-8.32","-3.26","-1.69"
"9.906946048","-9.10","-3.41","-1.18"
"9.965666304","-10.63","-4.20","-2.71"
"10.049552384","-14.00","-6.55","-2.71"
"10.108272640000001","-7.45","-5.65","-7.57"
"10.19215872","-11.73","-3.65","-4.04"
"10.276044800000001","-7.22","-3.65","-3.37"
"10.35993088","-7.73","-0.12","-2.31"
"10.829692928","-8.24","-0.82","-1.53"
"11.341398016000001","-9.14","-1.37","-2.98"
"11.349786624","-12.98","-1.06","-1.10"
"11.349786624","-15.42","-0.27","-5.69"
"11.366563840000001","-7.61","-3.80","-6.98-9.85"
"11.408506880000001","-7.69","-2.00","-6.20"
"11.49239296","-8.20","-3.18","-5.37"
"11.576279040000001","-6.59","-2.00","-3.45"
"11.710496768","-8.24","-0.67","-2.28"
"11.777605632","-8.67","-0.98","-0.94"
"11.82793728","-12.51","-3.96","-3.06"
"11.903434752","-13.69","-0.43","-2.90"
"11.99570944","-13.34","-1.69","-8.28"
"12.054429696000001","-11.53","-4.08","-3.18"
"12.155092992","-7.61","-0.71","-3.57"
"12.230590464","-7.77","-3.30","-2.86"
"12.322865152","-8.47","-3.53","-2.39"
"12.389974016","-8.39","-3.37","-2.24"
"12.465471488","-12.51","-3.57","-3.14"
"12.608077824","-10.98","-5.96","-2.71"
"12.675186688","-10.87","-8.08","-5.37"
"12.742295552000002","-13.26","-0.71","-3.96"
"12.842958848","-8.55","-3.96","-4.00"
"12.910067712","-7.85","-0.82","-3.53"
"12.977176576000002","-9.18","-0.90","-2.31"
"13.103005696","-9.10","-1.37","-1.80"
"13.103005696","-12.40","-2.98","-2.12"
"13.203668992","-14.51","-0.86","-2.98"
"13.270777856","-11.57","-1.61","-7.57"
"13.371441152000001","-12.32","-4.55","-3.18"
"13.488881664","-7.49","-0.82","-2.82"
"13.564379136000001","-7.57","-3.26","-2.82"
"13.631488000000001","-7.26","-3.57","-1.96"
"13.706985472000001","-9.77","-3.33","-2.79"
"13.774094336000001","-10.59","-5.77","-1.18"
"13.849591808000001","-10.79","-9.92","-6.59"
"13.933477888","-7.73","-3.02","-7.81"
"14.000586752","-10.83","-4.08","-4.51"
"14.084472832000001","-6.12","-3.22","-3.49"
"14.176747520000001","-8.00","-0.24","-2.00"
"14.2606336","-7.22","-1.02","-1.73"
"14.327742464000002","-10.90","-2.47","-3.22"
"14.42840576","-10.79","0.04","-1.14"
"14.503903232","-16.08","1.77","-8.83"
"14.562623488000002","-10.43","-4.39","-3.33"
"14.705229824000002","-9.53","-0.55","-3.61"
"14.747172864000001","-6.20","-3.18","-2.90"
"14.822670336000002","-8.28","-3.37","-1.92"
"14.914945024000001","-8.20","-3.41","-2.28"
"14.97366528","-12.08","-5.61","-2.71"
"15.057551360000001","-13.45","-6.55","-3.73"
"15.14143744","-7.85","-6.86","-6.39"
"15.242100736000001","-13.81","-1.22","-4.04"
"15.292432384000001","-7.61","-4.51","-3.92"
"15.401484288","-7.14","-0.51","-2.82"
"15.544090624","-8.71","-1.06","-2.00"
"15.611199488","-9.18","-2.39","-1.65"
"15.661531136","-12.59","-1.92","-2.35"
"15.720251392000002","-16.36","1.18","-6.28"
"15.787360256000001","-7.77","-1.73","-8.28"
"15.888023552000002","-12.12","-4.55","-4.12"
"15.946743808","-7.34","-0.27","-3.30"
"16.064184320000003","-7.37","-2.00","-2.79"
"16.114515968000003","-7.06","-3.45","-2.16"
"16.198402048000002","-10.00","-3.69","-3.65"
"16.265510912","-10.08","-4.20","-0.86"
"16.3577856","-16.44","-8.47","-5.96"
"16.810770432","-6.94","-2.31","-7.34"
"17.32247552","-9.96","-4.24","-5.30"
"17.372807168","-6.00","-2.75","-3.06"
"17.389584384000003","-7.61","-0.16","-2.71"
"17.397972992","-8.71","-1.06","-1.84-10.63"
"17.414750208","-9.18","-2.67","-1.61"
"17.498636288","-11.10","-3.57","-2.86"
"17.565745152","-11.38","-6.39","-3.80"
"17.649631232","-6.75","-5.61","-6.79"
"17.733517312","-13.61","-3.14","-4.24"
"17.800626176","-5.84","-3.41","-3.33"
"17.892900864","-7.57","-0.20","-2.86"
"17.985175552","-8.39","-0.63","-2.28"
"18.052284416000003","-9.02","-2.24","-3.14"
"18.144559104000002","-11.85","-1.92","-1.10"
"18.253611008","-16.20","-0.12","-5.61"
"18.320719872","-7.96","-2.75","-6.32"
"18.396217344","-9.53","-2.00","-4.31"
"18.463326208","-6.75","-1.92","-3.10"
"18.53882368","-7.88","-3.18","-2.59"
"18.647875584","-8.36","-3.06","-2.31"
"18.714984448000003","-10.12","-3.14","-3.88"
"18.773704704","-10.55","-3.41","-0.67"
"18.865979392","-13.61","-10.28","-7.34"
"18.95825408","-10.28","-2.28","-6.28"
"19.025362944","-9.73","-3.69","-4.63"
"19.117637632","-6.35","-1.92","-3.57"
"19.218300928","-7.81","-0.47","-2.71"
"19.285409792000003","-8.51","-0.94","-2.98"
"19.360907264","-12.75","-2.04","-2.82"
"19.428016128","-11.06","-0.35","0.27"
"19.511902208000002","-16.08","-0.51","-8.87"
"19.595788288","-8.98","-1.65","-3.96"
"19.679674368","-7.53","-1.14","-4.75"
"19.771949056","-8.24","-2.79","-3.06"
"19.839057920000002","-7.96","-3.69","-2.59"
"19.922944","-9.02","-3.02","-1.96"
"19.998441472","-10.36","-2.86","-2.51"
"20.082327552000002","-9.69","-5.37","-2.75"
"20.199768064","-12.08","-6.47","-6.20"
"20.25848832","-14.75","-3.33","-2.94"
"20.325597184000003","-6.32","-4.20","-3.37"
"20.401094656","-6.55","-0.55","-3.22"
"20.484980736","-8.36","-0.16","-2.39"
"20.577255424","-9.49","-1.96","-2.55"
"20.669530112","-12.16","-0.08","-2.16"
"20.745027584000002","-11.65","2.16","-2.47"
"20.812136448","-14.32","-3.53","-7.61"
"20.879245312000002","-10.94","-3.02","-3.65"
"20.979908608000002","-6.71","-0.67","-4.20"
"21.063794688","-8.00","-2.55","-3.92"
"21.130903552000003","-8.39","-3.77","-2.04"
"21.281898496","-8.39","-2.71","-1.77"
"21.34900736","-11.06","-4.47","-3.73"
"21.416116224","-10.40","-3.96","0.24"
"21.458059264000003","-13.42","-7.37","-3.65"
"21.541945344000002","-8.16","-3.73","-5.45"
"21.625831424","-9.10","-4.00","-4.28"
"21.701328896","-6.98","-1.96","-3.73"
"21.793603584000003","-7.81","-0.82","-3.02"
"21.877489664000002","-8.08","-0.16","-1.88"
"21.952987136","-11.30","-2.24","-3.41"
"22.036873216","-12.36","-1.57","-0.59"
"22.10398208","-15.85","-0.43","-6.90"
"22.246588416","-6.90","-1.10","-5.22"
"22.322085888","-9.18","-2.24","-4.31"
"22.800236544","-6.63","-2.12","-2.98"
"23.295164416000002","-8.55","-2.90","-2.28"
"23.32033024","-7.61","-3.18","-2.31"
"23.337107456000002","-10.51","-5.22","-3.18"
"23.337107456000002","-9.02","-5.53","-1.26-12.67"
"23.345496064000002","-12.75","0.78","-3.49"
"23.40421632","-12.36","-2.28","-6.75"
"23.488102400000002","-13.10","-3.18","-2.00"
"23.580377088000002","-7.06","-2.16","-4.39"
"23.639097344000003","-7.73","-3.06","-4.16"
"23.731372032000003","-7.34","-3.22","-2.71"
"23.823646720000003","-9.65","-3.26","-2.55"
"23.882366976","-9.61","-4.39","-2.82"
"24.016584704000003","-9.96","-7.49","-4.63"
"24.092082176","-10.16","-5.81","-6.00"
"24.150802432000003","-15.57","-4.75","-3.57"
"24.234688512","-7.57","-2.82","-3.45"
"24.301797376000003","-7.10","0.90","-3.45"
"24.377294848000002","-8.20","-2.75","-2.47"
"24.469569536","-9.38","-0.82","-2.35"
"24.545067008","-13.53","-2.82","-2.59"
"24.637341696","-12.71","1.37","-4.82"
"24.70445056","-12.63","-3.30","-7.53"
"24.796725248","-12.00","-3.73","-2.43"
"24.855445504000002","-6.90","-0.90","-3.73"
"24.964497408000003","-6.79","-3.06","-3.22"
"25.031606272","-8.12","-3.26","-2.04"
"25.090326528000002","-8.51","-2.90","-1.96"
"25.241321472000003","-11.45","-5.41","-2.35"
"25.308430336","-8.16","-5.73","-0.35"
"25.350373376","-14.12","-9.53","-6.83"
"25.442648064","-11.53","-0.98","-4.00"
"25.509756928","-7.65","-4.86","-3.61"
"25.602031616","-6.55","-1.29","-3.53"
"25.685917696","-7.96","-0.55","-2.08"
"25.753026560000002","-7.49","-0.86","-1.96"
"25.83691264","-11.81","-3.53","-2.86"
"25.912410112","-10.79","-1.02","0.24"
"26.055016448","-16.08","1.73","-7.73"
"26.189234176000003","-11.38","-3.80","-3.53"
"26.25634304","-9.34","-0.35","-4.00"
"26.331840512000003","-7.49","-2.59","-3.14"
"26.357006336","-7.69","-3.37","-1.73"
"26.398949376","-8.83","-2.43","-2.39"
"26.474446848000003","-10.98","-4.98","-3.33"
"26.558332928000002","-9.49","-6.28","-1.84"
"26.650607616000002","-14.12","-6.00","-5.49"
"26.734493696","-13.14","-2.28","-3.61"
"26.793213952000002","-8.36","-4.79","-4.28"
"26.944208896000003","-7.22","-0.82","-3.33"
"27.002929152","-8.47","-1.02","-2.63"
"27.070038016","-8.59","-1.18","-1.84"
"27.137146880000003","-10.28","-2.51","-2.79"
"27.212644352","-11.65","-1.26","0.00"
"27.296530432","-16.28","-0.04","-6.75"
"27.380416512","-8.63","-2.39","-3.92"
"27.455913984000002","-9.14","-1.02","-4.16"
"27.581743104","-6.04","-2.35","-3.26"
"27.623686144","-8.83","-2.94","-1.80"
"27.690795008000002","-7.57","-3.73","-2.08"
"27.783069696000002","-11.49","-4.24","-2.43"
"27.850178560000003","-10.28","-4.98","-0.82"
"27.984396288000003","-13.85","-8.94","-6.08"
"28.05989376","-12.83","-1.84","-3.88"
"28.127002624000003","-8.43","-4.86","-3.69"
"28.202500096","-6.83","-1.49","-3.14"
"28.261220352000002","-8.67","0.00","-1.92"
"28.781314048000002","-8.36","-1.37","-1.02"
"29.301407744000002","-12.55","-3.77","-2.94"
"29.326573568","-11.14","0.51","-1.33"
"29.334962176","-14.91","-0.51","-5.84"
"29.334962176","-11.18","-4.67","-3.18-7.45"
"29.334962176","-12.32","-1.02","-4.04"
"29.393682432000002","-7.77","-4.04","-3.84"
"29.477568512","-7.26","-1.02","-3.26"
"29.578231808","-8.36","-0.90","-2.16"
"29.645340672000003","-8.71","-0.71","-1.37"
"29.746003968","-13.81","-3.02","-2.63"
"29.813112832","-15.02","-0.27","-4.24"
"29.888610304","-11.22","-1.65","-8.00"
"30.022828032000003","-11.06","-5.49","-3.22"
"30.089936896","-6.75","-0.47","-3.37"
"30.165434368000003","-8.16","-2.67","-2.86"
"30.215766016000003","-7.57","-3.73","-1.41"
"30.299652096000003","-9.30","-2.90","-2.63"
"30.383538176000002","-11.49","-5.33","-0.78"
"30.467424256","-11.38","-9.61","-5.10"
"30.526144512000002","-6.55","-3.33","-8.36"
"30.6184192","-11.92","-5.14","-5.22"
"30.719082496000002","-6.16","-2.75","-3.41"
"30.786191360000004","-7.61","-0.27","-2.63"
"30.912020480000002","-8.08","-0.16","-1.45"
"30.987517952","-9.61","-2.55","-3.77"
"31.054626816000003","-11.22","-1.61","0.12"
"31.113347072000003","-16.59","-1.18","-6.55"
"31.180455936","-9.10","-4.43","-4.79"
"31.272730624","-9.89","-1.96","-3.57"
"31.339839488000003","-7.77","-2.90","-3.06"
"31.423725568000002","-8.71","-3.69","-2.24"
"31.490834432000003","-8.59","-3.18","-1.69"
"31.591497728","-10.67","-2.86","-3.22"
"31.666995200000002","-10.00","-4.63","-0.31"
"31.742492672","-15.89","-11.34","-8.16"
"31.885099008","-8.16","-1.41","-5.22"
"31.952207872000002","-7.37","-4.16","-5.33"
"32.019316736","-7.49","-2.55","-4.55"
"32.086425600000005","-8.59","-0.71","-3.69"
"32.145145856","-9.34","-0.71","-1.33"
"32.237420544","-9.22","-2.94","-2.82"
"32.329695232","-11.45","-2.75","-0.20"
"32.388415488","-16.95","-1.22","-8.39"
"32.480690176","-11.61","-2.98","-4.08"
"32.556187648000005","-6.79","-0.86","-4.12"
"32.698793984000005","-7.77","-2.94","-3.30"
"32.765902848","-9.26","-3.53","-2.24"
"32.833011712","-8.43","-3.33","-1.61"
"32.900120576","-11.57","-4.71","-3.18"
"32.967229440000004","-8.94","-5.33","-1.26"
"33.042726912","-12.32","-8.43","-6.28"
"33.126612992000005","-12.16","-2.63","-4.55"
"33.21888768","-6.71","-4.47","-4.79"
"33.285996544","-7.49","-0.55","-3.88"
"33.369882624","-8.55","-0.63","-1.80"
"33.436991488000004","-9.81","-1.65","-1.37"
"33.520877568","-12.12","-3.41","-2.16"
"33.613152256","-13.96","-1.26","-3.80"
"33.738981376000005","-13.30","-1.57","-8.59"
"33.814478848","-12.47","-4.35","-2.82"
"33.881587712000005","-8.28","-0.86","-3.33"
"33.957085184","-7.10","-3.45","-2.82"
"34.01580544","-7.26","-3.02","-1.77"
"34.09969152","-8.83","-3.37","-2.51"
"34.175188992","-10.67","-5.06","-2.86"
"34.250686464000005","-11.81","-6.55","-3.57"
"34.77078016","-9.41","-6.55","-6.32"
"35.299262464","-15.22","-1.49","-2.94"
"35.31603968","-7.30","-4.51","-3.84"
"35.324428288","-7.73","-1.18","-3.45"
"35.324428288","-8.36","-0.90","-2.39-8.63"
"35.341205504","-7.77","-2.79","-2.43"
"35.391537152000005","-8.83","-3.30","-2.59"
"35.492200448000006","-10.87","-4.51","-3.06"
"35.56769792","-12.04","-5.41","-4.39"
"35.718692864000005","-8.47","-4.79","-7.61"
"35.852910592","-12.28","-3.02","-4.43"
"35.861299200000005","-6.12","-3.80","-3.84"
"35.903242240000004","-7.41","-0.47","-2.94"
"35.961962496000005","-9.22","-0.55","-1.80"
"36.062625792000006","-9.53","-1.69","-2.16"
"36.11295744","-13.77","-1.84","-2.71"
"36.205232128000006","-14.00","0.31","-4.35"
"36.297506816","-12.55","-1.96","-8.24"
"36.356227072","-11.49","-4.86","-3.45"
"36.465278976","-7.30","-0.67","-3.49"
"36.532387840000005","-7.34","-3.30","-3.37"
"36.599496704","-7.57","-3.41","-2.47"
"36.674994176000006","-9.41","-3.06","-2.39"
"36.817600512000006","-10.75","-4.71","-2.35"
"36.893097984","-10.04","-6.20","-3.10"
"36.926652416","-8.67","-7.73","-7.96"
"37.018927104","-16.51","-2.82","-2.39"
"37.102813184000006","-6.51","-2.90","-3.77"
"37.16153344","-6.94","-0.67","-3.10"
"37.253808128","-8.43","-1.02","-2.71"
"37.346082816","-9.02","-0.71","-3.14"
"37.421580288","-12.71","-1.33","-2.12"
"37.555798016000004","-14.32","2.82","-6.47"
"37.631295488","-7.73","-2.16","-8.55"
"37.70679296","-10.75","-3.22","-4.67"
"37.773901824","-6.47","-2.12","-3.10"
"37.849399296","-7.73","-2.94","-2.86"
"37.91650816","-7.88","-3.41","-1.92"
"37.992005632","-10.24","-3.18","-2.67"
"38.084280320000005","-9.14","-4.75","-0.90"
"38.143000576000006","-15.34","-9.30","-5.49"
"38.235275264","-7.85","-3.14","-7.18"
"38.319161344","-9.96","-3.73","-4.63"
"38.386270208","-5.92","-2.59","-3.30"
"38.520487936","-7.69","-0.04","-2.67"
"38.5875968","-7.92","-1.29","-2.28"
"38.654705664000005","-10.51","-1.18","-3.65"
"38.721814528","-10.43","-1.77","-0.20"
"38.797312000000005","-15.93","0.67","-6.00"
"38.881198080000004","-10.51","-4.90","-4.39"
"38.973472768","-9.18","-1.10","-4.35"
"39.040581632000006","-8.08","-3.06","-3.45"
"39.124467712000005","-7.96","-3.69","-2.31"
"39.208353792000004","-8.12","-3.45","-1.73"
"39.275462656","-10.75","-2.86","-3.06"
"39.409680384000005","-9.45","-3.84","-0.20"
"39.485177856","-14.24","-9.69","-4.98"
"39.560675328","-7.65","-2.82","-6.71"
"39.636172800000004","-9.73","-4.31","-4.82"
"39.703281664","-6.59","-2.16","-3.37"
"39.770390528","-8.20","-0.39","-2.39"
"39.862665216","-7.96","-1.22","-1.26"
"39.954939904","-9.65","-3.10","-3.22"
"40.0556032","-10.51","0.24","-0.71"
"40.147877888000004","-16.48","-0.75","-7.92"
"40.189820928","-9.14","-3.30","-3.65"
"40.273707008","-9.53","-1.61","-4.08"
"40.760246272","-7.77","-2.86","-3.53"
"41.263562752000006","-8.63","-3.69","-2.43"
"41.280339968","-8.20","-3.22","-1.88"
"41.288728576000004","-10.79","-3.65","-3.73"
"41.297117184","-10.04","-3.45","0.27-13.06"
"41.322283008","-10.55","-0.90","-2.39"
"41.39778048","-11.85","-3.22","-7.77"
"41.48166656","-10.63","-0.31","-3.96"
"41.548775424000006","-10.12","-2.39","-5.41"
"41.64943872","-8.83","-1.96","-4.63"
"41.708158976","-9.61","-3.26","-5.26"
"41.800433664","-8.67","-4.12","-3.45"
"41.859153920000004","-9.14","-3.77","-3.10"
"41.951428608","-9.14","-3.02","-3.02"
"42.02692608","-9.89","-2.79","-2.31"
"42.119200768000006","-4.16","-5.10","-7.77"
"42.228252672","-14.59","-2.35","-6.08"
"42.295361536","-8.00","-3.30","-5.84"
"42.3624704","-9.34","-1.14","-4.86"
"42.437967872","-8.83","-2.04","-4.59"
"42.580574208","-8.63","-1.88","-3.33"
"42.614128640000004","-9.53","-1.53","-3.18"
"42.681237504","-11.69","1.84","-1.14"
"42.765123584","-17.22","-0.27","-9.77"
"42.857398272000005","-8.28","-1.45","-7.10"
"42.932895744","-10.67","-2.90","-4.75"
"43.000004608000005","-7.22","-1.73","-3.37"
"43.092279296","-7.81","-3.06","-3.30"
"43.159388160000006","-6.75","-3.65","-1.92"
"43.301994496000006","-9.38","-3.22","-2.59"
"43.369103360000004","-10.04","-5.26","-1.26"
"43.444600832000006","-16.00","-9.06","-4.20"
"43.503321088","-8.79","-3.06","-6.43"
"43.570429952000005","-9.61","-3.69","-4.63"
"43.671093248000005","-6.32","-2.90","-3.45"
"43.729813504000006","-7.49","0.08","-3.65"
"43.822088192","-8.39","-1.69","-2.20"
"43.897585664000005","-9.85","-1.06","-3.45"
"43.973083136","-12.43","-0.43","-0.94"
"44.107300864","-15.46","0.63","-6.55"
"44.174409728","-7.85","-3.53","-5.73"
"44.241518592000006","-9.85","-2.08","-3.96"
"44.308627456","-6.59","-1.33","-2.82"
"44.37573632","-8.04","-2.79","-2.82"
"44.509954048000004","-7.81","-3.80","-2.31"
"44.577062912","-10.87","-3.22","-3.26"
"44.635783168","-9.73","-4.20","-0.16"
"44.711280640000005","-15.14","-11.10","-8.04"
"44.795166720000005","-10.83","-2.71","-4.47"
"44.870664192","-9.06","-4.28","-4.28"
"44.946161664","-6.51","-1.80","-3.65"
"45.071990784","-7.61","-0.78","-3.02"
"45.147488256","-8.51","-1.06","-2.51"
"45.21459712","-10.75","-1.96","-3.26"
"45.281705984000006","-12.87","-1.88","-0.71"
"45.348814848","-16.55","0.75","-6.90"
"45.483032576","-7.49","-3.77","-5.06"
"45.533364224","-10.43","-1.02","-3.41"
"45.600473088","-7.49","-2.51","-3.45"
"45.684359168","-7.45","-3.02","-2.75"
"45.768245248","-7.85","-3.69","-2.00"
"45.835354112000005","-10.75","-4.24","-2.63"
"45.919240192000004","-9.34","-4.47","-0.67"
"46.028292096","-12.94","-9.53","-6.12"
"46.095400960000006","-5.02","-2.94","-7.88"
"46.170898432","-10.32","-4.63","-4.28"
"46.238007296000006","-6.90","-2.43","-3.22"
"46.741323776","-7.45","-1.02","-3.02"
"47.244640256000004","-7.49","-0.08","-2.59"
"47.278194688000006","-11.14","-1.14","-3.80"
"47.286583296","-10.87","-2.20","-0.31"
"47.286583296","-19.73","2.63","-8.32-9.02"
"47.320137728000006","-14.87","-7.49","-6.16"
"47.370469376","-11.89","-2.55","-3.69"
"47.471132672","-7.06","-3.77","-4.00"
"47.546630144000005","-6.16","-0.86","-2.98"
"47.638904832","-8.36","-0.04","-1.53"
"47.697625088","-8.59","-1.45","-1.26"
"47.781511168","-13.73","-3.49","-2.59"
"47.873785856000005","-15.38","0.90","-4.43"
"47.949283328","-11.30","-2.86","-8.51"
"48.083501056","-11.49","-4.12","-2.55"
"48.15060992","-6.67","0.43","-2.67"
"48.226107392","-6.79","-2.79","-2.90"
"48.360325120000006","-6.71","-3.92","-2.08"
"48.368713728","-9.96","-3.84","-2.79"
"48.427433984000004","-9.22","-4.75","-0.43"
"48.528097280000004","-13.73","-9.61","-5.73"
"48.61198336","-8.36","-2.51","-7.57"
"48.670703616000004","-10.51","-4.59","-4.55"
"48.788144128000006","-5.49","-2.67","-3.41"
"48.855252992000004","-7.37","-1.45","-2.47"
"48.913973248000005","-7.34","0.31","-2.28"
"49.056579584000005","-11.85","-1.41","-3.57"
"49.123688448","-10.71","-1.06","-0.55"
"49.190797312","-18.36","-0.47","-7.92"
"49.266294784","-11.26","-2.55","-4.00"
"49.333403648","-9.45","-0.43","-4.31"
"49.40890112","-6.86","-3.33","-3.22"
"49.4927872","-8.36","-2.51","-2.71"
"49.559896064","-8.63","-3.10","-2.51"
"49.66055936","-11.49","-3.88","-3.45"
"49.727668224000006","-9.41","-3.49","-0.24"
"49.861885952","-15.42","-8.36","-6.04"
"49.92899481600001","-13.34","-2.24","-5.06"
"49.996103680000004","-9.34","-4.12","-4.59"
"50.07160115200001","-7.14","-1.49","-3.26"
"50.16387584","-8.16","-0.63","-2.79"
"50.230984704","-8.79","-1.33","-1.84"
"50.298093568000006","-10.43","-2.63","-2.98"
"50.390368256","-11.10","-2.00","-0.39"
"50.45747712","-14.20","1.77","-6.55"
"50.549751808","-10.36","-3.10","-8.36"
"50.625249280000006","-10.55","-2.71","-3.65"
"50.692358144","-6.39","0.59","-3.57"
"50.834964480000004","-8.24","-3.61","-3.73"
"50.910461952000006","-8.43","-3.77","-2.71"
"50.977570816000004","-7.96","-3.41","-1.96"
"51.036291072000004","-10.12","-4.20","-2.55"
"51.120177152000004","-9.85","-5.02","-1.92"
"51.195674624000006","-10.20","-4.59","-6.35"
"51.279560704000005","-13.34","-1.92","-3.88"
"51.371835392","-7.37","-5.06","-4.47"
"51.430555648","-7.73","0.16","-3.10"
"51.522830336000006","-9.14","-1.49","-2.51"
"51.5899392","-9.02","-1.26","-2.43"
"51.682213888","-11.49","-2.20","-1.29"
"51.791265792000004","-11.89","1.69","-4.39"
"51.849986048000005","-12.04","0.24","-7.37"
"51.92548352","-13.30","-3.88","-2.71"
"52.000980992","-6.20","-0.47","-3.53"
"52.135198720000005","-7.81","-2.63","-2.98"
"52.193918976000006","-7.26","-4.04","-1.77"
"52.252639232","-9.57","-2.82","-2.47"
"52.730789888000004","-11.06","-4.90","-2.24"
"53.22571776","-12.47","-6.32","-4.75"
"53.259272192000005","-7.06","-6.08","-7.06"
"53.276049408000006","-14.71","-2.86","-2.90"
"53.284438016","-6.86","-4.12","-3.65-7.81"
"53.30960384","-6.71","-2.43","-2.82"
"53.39348992","-7.53","-2.75","-2.86"
"53.452210176","-7.26","-3.18","-2.39"
"53.552873472","-10.20","-3.26","-2.43"
"53.611593728","-10.00","-4.55","-0.78"
"53.76258867200001","-16.20","-9.57","-6.12"
"53.829697536000005","-10.00","-1.96","-7.45"
"53.8968064","-9.06","-4.59","-4.04"
"53.963915264","-6.71","-1.53","-3.30"
"54.031024128000006","-7.14","-0.63","-2.98"
"54.123298816","-8.24","-1.84","-2.04"
"54.198796288000004","-11.69","-1.02","-2.98"
"54.282682368","-10.83","0.08","-2.20"
"54.341402624000004","-15.65","-0.04","-8.32"
"54.442065920000005","-10.83","-5.10","-2.67"
"54.509174784","-6.67","0.08","-3.77"
"54.635003904","-8.00","-2.79","-3.37"
"54.702112768000006","-7.41","-4.12","-1.96"
"54.769221632000004","-9.22","-2.79","-2.20"
"54.920216576","-10.63","-4.79","-3.26"
"54.928605184000006","-8.98","-6.67","-3.18"
"54.987325440000006","-8.43","-7.41","-7.02"
"55.08798873600001","-14.47","-1.96","-3.53"
"55.171874816000006","-7.85","-5.30","-3.88"
"55.238983680000004","-6.75","-0.31","-3.49"
"55.32286976","-8.20","-1.02","-2.20"
"55.398367232000005","-8.67","-1.92","-1.33"
"55.49064192","-11.65","-3.37","-2.35"
"55.61647104","-13.30","0.12","-4.35"
"55.675191296","-12.12","-1.02","-7.96"
"55.750688768","-12.51","-4.67","-2.59"
"55.817797632","-7.45","0.35","-3.14"
"55.893295104","-6.90","-3.37","-3.30"
"55.977181184","-7.18","-3.49","-2.55"
"56.03590144","-8.59","-2.94","-2.43"
"56.12817612800001","-10.75","-4.98","-2.63"
"56.220450816","-10.12","-6.98","-3.69"
"56.304336896","-9.89","-5.65","-5.81"
"56.388222976","-13.73","-2.86","-3.77"
"56.446943232","-7.06","-4.51","-4.00"
"56.572772352","-7.10","0.24","-2.86"
"56.648269824","-8.32","-0.08","-2.16"
"56.706990080000004","-8.47","-1.22","-2.24"
"56.774098944","-12.24","-2.94","-2.71"
"56.87476224","-11.89","-0.04","-4.39"
"56.950259712000005","-12.87","-0.47","-6.59"
"57.017368576","-13.73","-5.65","-2.20"
"57.109643264000006","-6.59","0.20","-3.02"
"57.176752128000004","-7.49","-3.77","-3.30"
"57.260638208","-7.77","-3.41","-1.96"
"57.35291289600001","-8.67","-2.86","-2.35"
"57.420021760000004","-10.51","-4.51","-2.67"
"57.503907840000004","-8.51","-5.06","-2.39"
"57.646514176000004","-12.47","-8.39","-7.30"
"57.722011648000006","-13.38","-2.67","-3.37"
"57.78073190400001","-7.81","-4.20","-4.28"
"57.831063552","-8.04","-1.18","-3.65"
"57.92333824000001","-7.85","-1.49","-3.33"
"58.007224320000006","-8.32","-1.33","-2.63"
"58.06594457600001","-9.06","-1.96","-2.75"
"58.166607872","-9.77","-1.92","-1.84"
"58.25049395200001","-14.59","0.67","-8.83"
"58.728644608","-10.51","-7.26","-6.55"
"59.24873830400001","-9.77","1.33","-3.65"
"59.273904128000005","-5.53","-2.35","-4.00"
"59.273904128000005","-7.96","-2.39","-3.10"
"59.282292736","-7.37","-2.79","-2.24-8.83"
"59.324235776","-8.04","-0.78","-2.75"
"59.374567424000006","-8.90","-1.61","-1.96"
"59.450064896","-9.77","-1.96","-2.35"
"59.584282624000004","-11.14","-1.29","-1.10"
"59.659780096000006","-18.12","-0.67","-7.92"
"59.71850035200001","-9.06","-2.28","-5.88"
"59.768832","-10.47","-3.53","-4.43"
"59.85271808","-6.79","-0.94","-3.30"
"59.944992768000006","-8.71","-3.18","-2.63"
"60.028878848000005","-7.85","-3.84","-1.92"
"60.095987712","-9.65","-3.37","-2.28"
"60.179873792","-8.94","-4.82","-0.78"
"60.272148480000006","-18.59","-10.47","-6.79"
"60.339257344","-7.02","-2.98","-7.53"
"60.481863680000004","-11.02","-4.75","-5.33"
"60.548972544","-6.55","-2.67","-3.84"
"60.61608140800001","-7.73","-0.71","-2.35"
"60.666413056","-8.20","-1.10","-1.29"
"60.741910528000005","-9.65","-2.35","-2.24"
"60.850962432","-11.41","0.00","0.12"
"60.909682688000004","-16.12","-3.02","-6.86"
"61.00195737600001","-10.51","-1.73","-4.82"
"61.085843456000006","-10.28","-3.61","-4.28"
"61.14456371200001","-6.00","-1.69","-3.30"
"61.2368384","-8.43","-3.45","-2.51"
"61.337501696000004","-7.34","-2.90","-2.28"
"61.412999168000006","-9.73","-3.18","-2.12"
"61.48849664","-9.18","-4.90","-0.71"
"61.555605504000006","-19.14","-10.94","-7.37"
"61.631102976","-13.38","-0.86","-3.92"
"61.731766272","-9.96","-3.53","-4.59"
"61.815652352","-7.37","-2.24","-3.18"
"61.874372608","-8.20","-1.26","-1.80"
"61.966647296000005","-8.04","-0.94","-1.88"
"62.04214476800001","-10.71","-1.41","-3.14"
"62.126030848000006","-10.32","0.16","-0.35"
"62.20152832","-16.71","0.16","-9.81"
"62.302191616","-9.96","-2.86","-3.92"
"62.377689088000004","-8.24","-1.45","-4.16"
"62.436409344000005","-7.69","-3.02","-3.02"
"62.55384985600001","-8.63","-3.41","-2.16"
"62.620958720000004","-8.16","-2.16","-2.24"
"62.679678976000005","-11.34","-2.86","-3.84"
"62.771953664","-9.96","-4.28","-0.43"
"62.855839744","-16.12","-12.47","-8.16"
"62.948114432000004","-9.77","-0.78","-5.14"
"63.015223296","-9.77","-5.30","-4.39"
"63.099109376","-6.39","-2.20","-4.00"
"63.182995456","-7.45","0.16","-3.14"
"63.26688153600001","-8.24","-0.98","-2.00"
"63.40948787200001","-10.04","-2.16","-3.88"
"63.5437056","-11.14","-2.35","0.43"
"63.59403724800001","-18.71","0.71","-7.49"
"63.602425856","-10.16","-4.28","-4.71"
"63.661146112000004","-10.36","-1.92","-4.08"
"63.7534208","-6.94","-2.94","-2.90"
"63.83730688000001","-8.67","-2.59","-1.53"
"63.904415744000005","-8.51","-3.30","-2.20"
"63.996690432","-11.18","-5.30","-3.02"
"64.08057651200001","-10.00","-8.08","-3.92"
"64.147685376","-12.55","-5.49","-5.49"
"64.239960064","-15.26","-2.59","-2.86"
"64.70972211200001","-6.75","-5.10","-4.35"
"65.213038592","-7.53","-1.53","-3.69"
"65.22142720000001","-8.39","-0.39","-2.55"
"65.246593024","-8.90","-1.80","-2.04"
"65.246593024","-10.94","-3.14","-3.53-9.65"
"65.296924672","-9.96","-4.51","-3.14"
"65.36403353600001","-9.14","-6.00","-1.41"
"65.44791961600001","-12.47","-7.92","-6.20"
"65.54019430400001","-13.57","-1.29","-3.84"
"65.59891456","-7.88","-4.59","-4.79"
"65.691189248","-8.12","-1.33","-3.84"
"65.758298112","-8.75","-1.18","-3.37"
"65.85057280000001","-8.67","-1.73","-2.94"
"65.959624704","-9.26","-2.43","-2.71"
"66.01834496000001","-11.34","-1.61","-2.82"
"66.16095129600001","-14.16","0.20","-5.96"
"66.22806016","-11.57","-1.88","-6.98"
"66.295169024","-10.24","-3.69","-3.41"
"66.370666496","-8.12","-1.22","-4.00"
