"NAME:","matan w 3"
"EXPERIMENT TIME:","Thu Jun 01 12:00:05 GMT+03:00 2023"
"ACTIVITY TYPE:","Walking"
"COUNTS OF ACTUAL STEPS:","110"
"  "," "
"Time [sec]","ACC X","ACC Y","ACC Z"
"0","9.30","-2.79","-3.45"
"0.008388608","9.10","-3.65","-3.49"
"0.016777216","8.83","-3.77","-3.61"
"0.016777216","8.59","-4.00","-4.128.32"
"0.025165824000000003","7.92","-1.73","-1.73"
"0.09227468800000001","9.18","-2.39","-1.77"
"0.226492416","12.83","-1.10","-3.14"
"0.30198988800000004","11.65","-1.33","-5.10"
"0.36909875200000003","3.65","-3.53","-5.96"
"0.436207616","10.08","-3.02","-5.45"
"0.5033164800000001","7.30","-3.02","-5.10"
"0.5788139520000001","8.16","-3.06","-3.33"
"0.662700032","7.77","-2.71","-2.39"
"0.746586112","9.06","-2.43","-1.45"
"0.8388608000000001","11.34","-3.53","-2.20"
"0.92274688","13.57","-8.79","-5.41"
"0.981467136","4.59","0.08","-3.30"
"1.1072962560000001","9.69","-3.88","-4.59"
"1.17440512","8.83","-4.55","-2.59"
"1.241513984","7.22","-1.61","-3.53"
"1.3086228480000002","8.12","-2.20","-2.47"
"1.4092861440000002","7.61","-1.45","-1.57"
"1.4680064000000002","13.81","-3.77","-1.22"
"1.55189248","14.98","-2.63","-4.20"
"1.63577856","4.71","-1.57","-4.55"
"1.711276032","7.34","-2.86","-3.73"
"1.795162112","11.81","-2.82","-5.06"
"1.895825408","7.88","-3.18","-3.26"
"1.954545664","6.90","-3.10","-1.73"
"2.0552089600000003","8.16","-3.02","-1.10"
"2.122317824","16.63","-4.63","-2.08"
"2.2565355520000003","12.63","-8.16","-5.06"
"2.323644416","5.06","0.55","-2.59"
"2.3739760640000003","9.85","-4.51","-3.80"
"2.466250752","9.30","-4.12","-3.69"
"2.541748224","9.45","-1.84","-3.57"
"2.60046848","6.04","-0.86","-1.29"
"2.6927431680000002","7.85","-1.65","-2.86"
"2.7766292480000003","14.28","-1.18","-1.69"
"2.860515328","12.55","0.51","-4.79"
"2.927624192","3.06","-2.47","-4.90"
"3.028287488","9.38","-1.37","-3.45"
"3.0953963520000003","7.10","-0.67","-3.96"
"3.2380026880000004","7.85","-4.16","-2.20"
"3.2967229440000003","6.63","-3.84","-0.71"
"3.347054592","10.36","-3.18","-2.67"
"3.4393292800000004","12.71","-4.39","-4.35"
"3.489660928","6.39","-3.84","-4.86"
"3.5735470080000002","8.83","-0.08","-3.61"
"3.6742103040000003","10.28","-6.67","-2.94"
"3.749707776","6.08","-1.18","-2.71"
"3.8419824640000004","8.28","-2.82","-2.12"
"3.9007027200000004","8.43","-2.04","-1.37"
"4.043309056","17.22","0.24","0.20"
"4.102029312","11.85","-0.51","-4.79"
"4.177526784","3.96","-2.67","-4.47"
"4.244635648","9.81","-1.18","-5.96"
"4.32013312","10.79","-2.12","-3.45"
"4.395630592","6.35","-3.18","-1.88"
"4.479516672","6.20","-4.16","0.12"
"4.555014144","6.98","-4.04","-3.45"
"4.647288832","12.24","-4.90","-4.98"
"4.731174912","7.30","-3.30","-3.80"
"4.815060992","8.98","0.16","-4.63"
"4.882169856","10.63","-6.24","-2.28"
"4.949278720000001","6.20","-0.71","-2.43"
"5.477761024","7.73","-2.31","-2.28"
"5.972688896","8.59","-1.77","-1.61"
"5.99785472","14.59","-2.08","0.63"
"6.006243328","14.24","-1.18","-4.82"
"6.014631936000001","5.14","-1.77","-4.798.39"
"6.023020544","4.94","1.18","-4.43"
"6.090129408","9.38","-6.12","-3.65"
"6.174015488","8.20","-2.12","-2.04"
"6.266290176","6.67","-1.49","-2.55"
"6.350176256","8.04","-2.00","-0.86"
"6.434062336","10.24","-2.16","-5.45"
"6.492782592","15.30","-5.92","-6.79"
"6.576668672","7.45","-0.78","-4.47"
"6.66894336","7.06","-3.30","-3.49"
"6.75282944","10.36","-0.63","-5.69"
"6.870269952","7.81","-3.69","-2.55"
"6.928990208","6.86","-3.77","-1.84"
"7.00448768","8.20","-2.59","-0.90"
"7.079985152000001","14.24","-2.31","-1.10"
"7.155482624","12.36","-8.00","-3.69"
"7.247757312","5.14","-0.08","-4.20"
"7.29808896","7.65","-2.04","-4.82"
"7.390363648","10.08","-6.86","-3.41"
"7.474249728","9.14","-2.16","-2.51"
"7.558135808","7.26","-1.02","-1.53"
"7.642021888","7.06","-1.96","0.35"
"7.709130752","13.77","-2.90","-2.79"
"7.818182656","17.30","-3.96","-7.96"
"7.876902912","7.45","0.00","-4.39"
"8.019509248","7.45","-2.90","-2.90"
"8.086618112","12.16","-3.33","-3.65"
"8.120172544","7.57","-3.57","-2.43"
"8.212447232","6.51","-3.02","-1.45"
"8.279556096","7.30","-3.61","-2.28"
"8.371830784","15.46","-3.37","-4.86"
"8.438939648","10.71","-7.26","-7.18"
"8.522825728","7.26","2.63","-4.98"
"8.606711808","10.83","-6.32","-4.16"
"8.698986496","7.53","-1.37","-3.10"
"8.774483968","9.26","-0.94","-3.10"
"8.908701696000001","7.53","-2.08","-0.31"
"8.975810560000001","12.08","-2.31","-3.30"
"9.042919424","17.42","-5.37","-9.41"
"9.084862464","5.81","-0.55","-3.92"
"9.177137152","7.73","-0.98","-4.35"
"9.261023232000001","12.59","-2.67","-4.43"
"9.361686528","6.32","-3.53","-2.94"
"9.420406784","6.59","-3.37","-1.18"
"9.512681472","8.24","-3.22","-1.84"
"9.588178944000001","13.53","-5.14","-1.22"
"9.6468992","12.75","-7.61","-4.63"
"9.789505536","6.12","0.47","-2.16"
"9.865003008","9.73","-6.71","-3.65"
"9.923723264000001","8.16","-1.73","-2.71"
"9.999220736","5.22","-1.57","-2.31"
"10.066329600000001","8.36","-1.80","-1.06"
"10.158604288000001","11.45","-1.61","-6.83"
"10.217324544","12.94","-7.61","-6.67"
"10.301210624000001","9.61","1.57","-6.75"
"10.385096704","6.24","-3.77","-4.79"
"10.468982784000001","12.40","-0.94","-4.04"
"10.552868864","5.61","-2.90","-2.71"
"10.653532160000001","6.16","-3.06","-2.28"
"10.720641024","8.90","-2.43","-2.00"
"10.787749888","16.36","-6.67","-1.69"
"10.930356224","12.28","-7.57","-4.20"
"10.980687872","6.00","-0.71","-4.20"
"11.458838528000001","9.06","-4.28","-3.77"
"11.953766400000001","9.45","-4.39","-2.28"
"11.987320832","6.00","-1.92","-2.557.77"
"11.99570944","9.02","-1.14","-3.4915.61"
"12.020875264","10.28","-4.08","-1.45"
"12.079595520000002","12.32","-6.16","-4.82"
"12.1634816","7.77","-1.80","-4.98"
"12.24736768","8.71","-3.33","-4.98"
"12.331253760000001","10.04","-4.31","-3.30"
"12.41513984","6.94","-0.94","-1.96"
"12.499025920000001","7.45","-2.47","-1.65"
"12.599689216000002","7.81","-1.77","-3.73"
"12.666798080000001","16.40","-3.30","-7.73"
"12.733906944000001","10.04","-2.24","-4.31"
"12.876513280000001","4.31","-2.86","-5.10"
"12.901679104000001","10.20","-0.47","-4.28"
"12.985565184","7.81","-1.61","-3.33"
"13.069451264000001","6.24","-2.55","-2.31"
"13.153337344","7.49","-3.49","-0.78"
"13.220446208","6.98","-4.35","-1.80"
"13.304332288000001","11.53","-4.67","-4.71"
"13.388218368","6.98","-3.14","-5.81"
"13.480493056","7.65","-1.41","-4.12"
"13.54760192","9.10","-4.55","-2.59"
"13.614710784000001","6.79","-1.65","-2.35"
"13.765705728","8.32","-2.86","-2.43"
"13.832814592","7.65","-1.14","-2.90"
"13.866369024","14.24","-0.94","0.78"
"13.950255104","14.32","-2.75","-6.75"
"14.034141184000001","4.28","-1.80","-4.79"
"14.126415872","8.28","-2.82","-3.84"
"14.185136128000002","11.10","-1.65","-4.71"
"14.269022208","8.55","-3.14","-2.31"
"14.352908288","6.28","-3.41","-1.10"
"14.436794368000001","8.16","-2.98","-3.14"
"14.512291840000001","14.12","-4.94","-5.41"
"14.654898176000001","6.28","-4.94","-3.96"
"14.722007040000001","6.47","0.00","-4.47"
"14.789115904","8.59","-5.73","-4.12"
"14.839447552000001","9.02","-2.39","-3.57"
"14.931722240000001","7.57","-0.27","-2.16"
"15.007219712000001","6.51","-2.20","-0.86"
"15.091105792","13.93","-2.51","-1.33"
"15.18338048","15.89","-3.14","-5.30"
"15.233712128","6.24","-2.28","-3.41"
"15.325986816","6.79","-0.67","-4.59"
"15.418261504","12.51","-2.28","-4.47"
"15.485370368000002","6.59","-3.96","-2.59"
"15.619588096000001","6.90","-3.18","-0.98"
"15.68669696","8.16","-3.92","-3.45"
"15.753805824","14.16","-3.73","-1.77"
"15.820914688","9.34","-8.00","-5.53"
"15.913189376000002","4.98","1.88","-3.77"
"15.997075456000001","11.81","-8.98","-4.67"
"16.047407104","9.61","-2.59","-2.86"
"16.1480704","7.45","-1.22","-2.39"
"16.223567872","6.32","-1.33","-1.06"
"16.307453952","12.47","-3.33","-2.28"
"16.441671680000002","11.18","-4.59","-4.35"
"16.500391936","8.39","-0.16","-6.39"
"16.575889408000002","5.02","-1.77","-5.22"
"16.642998272","14.16","-3.26","-2.67"
"16.710107136","7.26","-1.96","-2.90"
"16.785604608","5.81","-4.04","-1.14"
"16.877879296","8.12","-4.16","-1.77"
"16.961765376000002","14.04","-4.79","-1.69"
"17.439916032000003","14.47","-6.86","-4.94"
"17.968398336","4.35","-0.31","-2.59"
"17.968398336","9.45","-5.61","-5.41"
"17.993564160000002","8.83","-3.84","-3.53"
"17.993564160000002","9.38","-1.14","-2.946.12"
"18.010341376","7.45","-3.61","-2.67"
"18.102616064000003","6.20","-2.63","-0.63"
"18.169724928","10.40","-2.63","-1.61"
"18.253611008","11.92","-3.53","-1.77"
"18.362662912","6.94","-3.77","-4.94"
"18.421383168000002","8.79","0.47","-4.90"
"18.49688064","9.10","-7.37","-1.88"
"18.555600896","7.26","-2.35","-3.14"
"18.664652800000002","7.53","-0.90","-2.31"
"18.731761664","8.04","-1.45","-1.29"
"18.815647744","13.30","-2.55","0.24"
"18.882756608","14.87","-1.57","-5.10"
"18.966642688","4.00","-1.96","-3.49"
"19.058917376","8.36","-2.08","-5.84"
"19.142803456000003","10.87","-2.04","-3.53"
"19.235078144000003","7.92","-2.43","-2.75"
"19.302187008","5.57","-3.96","-1.02"
"19.369295872000002","8.00","-3.14","-3.22"
"19.511902208000002","13.34","-3.22","-2.86"
"19.570622464","9.81","-5.10","-4.35"
"19.637731328","6.12","0.78","-4.31"
"19.696451584000002","10.71","-4.90","-4.43"
"19.780337664","8.20","-3.26","-3.53"
"19.864223744","8.32","-0.63","-2.71"
"19.956498432","6.75","-1.14","-0.43"
"20.040384512000003","12.20","-2.63","-4.79"
"20.124270592000002","17.81","-4.00","-8.39"
"20.182990848000003","7.06","-0.12","-4.16"
"20.283654144","6.35","-3.10","-4.59"
"20.350763008","12.71","-3.10","-3.02"
"20.417871872000003","7.53","-2.24","-2.71"
"20.552089600000002","5.88","-3.80","-1.69"
"20.594032640000002","8.32","-2.28","-1.65"
"20.67791872","18.32","-6.75","-3.30"
"20.7618048","12.36","-6.20","-3.30"
"20.828913664","2.94","-0.31","-4.16"
"20.929576960000002","11.85","-4.47","-5.49"
"21.01346304","9.14","-4.47","-3.41"
"21.072183296000002","7.53","-1.49","-2.90"
"21.164457984000002","6.83","-0.67","-1.29"
"21.298675712","9.45","-1.80","-3.84"
"21.365784576000003","14.87","-6.28","-6.12"
"21.43289344","10.00","-1.57","-3.33"
"21.51677952","3.37","-2.75","-3.33"
"21.55872256","9.14","-0.39","-4.94"
"21.650997248000003","8.63","-2.28","-3.41"
"21.734883328000002","7.10","-3.88","-2.67"
"21.818769408","6.75","-2.94","-0.94"
"21.885878272000003","7.14","-2.47","-2.71"
"21.969764352000002","13.57","-3.65","-4.20"
"22.053650432","5.84","-3.84","-4.08"
"22.18786816","7.49","-0.12","-2.98"
"22.246588416","10.12","-5.22","-4.16"
"22.313697280000003","8.12","-2.51","-3.53"
"22.380806144","7.96","-0.86","-2.24"
"22.447915008000003","6.20","-1.84","-0.90"
"22.531801088","14.00","-2.43","0.12"
"22.624075776","15.77","-3.02","-4.75"
"22.707961856","4.82","-2.12","-4.63"
"22.791847936","8.47","-2.47","-3.26"
"22.8589568","9.34","-1.69","-4.79"
"22.94284288","9.26","-3.69","-2.51"
"23.429382144","7.02","-3.49","-1.18"
"23.932698624","7.65","-3.73","-3.14"
"23.957864448000002","12.67","-4.08","-2.24"
"23.966253056000003","11.96","-6.43","-5.02"
"23.966253056000003","4.00","0.47","-3.5312.16"
"24.008196096000002","5.37","-3.22","-3.30"
"24.07530496","13.45","-1.53","-3.96"
"24.159191040000003","6.98","-3.77","-2.55"
"24.293408768000003","6.43","-3.80","-1.57"
"24.360517632","8.51","-1.92","-1.06"
"24.41084928","16.48","-5.57","-2.86"
"24.49473536","12.36","-7.22","-4.00"
"24.553455616","2.94","0.31","-3.88"
"24.654118912","12.83","-6.20","-5.33"
"24.738004992","9.26","-3.53","-3.30"
"24.796725248","7.57","-1.49","-2.98"
"24.905777152000002","6.71","-0.86","-0.94"
"24.964497408000003","10.43","-1.92","-3.80"
"25.039994880000002","13.53","-6.32","-4.24"
"25.174212608","10.00","-0.71","-4.24"
"25.24971008","2.79","-2.16","-3.41"
"25.316818944","12.08","-2.31","-5.06"
"25.358761984","8.32","-2.28","-3.45"
"25.451036672","7.41","-3.65","-2.28"
"25.551699968","7.26","-2.82","-0.78"
"25.610420224000002","8.12","-3.14","-2.35"
"25.702694912000002","13.45","-5.41","-4.47"
"25.778192384","7.14","-5.33","-5.02"
"25.870467072","5.92","1.26","-3.88"
"25.929187328","10.04","-7.06","-2.90"
"26.071793664","8.71","-2.16","-3.96"
"26.138902528000003","7.41","-0.86","-2.35"
"26.206011392","6.63","-1.69","-0.59"
"26.273120256000002","12.36","-1.33","-4.59"
"26.34022912","15.22","-6.00","-6.43"
"26.440892416","7.18","-0.16","-4.94"
"26.516389888000003","7.81","-2.16","-3.77"
"26.600275968000002","10.79","-2.24","-5.10"
"26.667384832000003","9.14","-3.53","-2.79"
"26.759659520000003","7.53","-3.57","-1.73"
"26.851934208000003","7.85","-1.06","-0.94"
"26.952597504000003","16.28","-2.08","-2.63"
"27.019706368","14.00","-7.53","-4.94"
"27.086815232000003","3.22","-1.18","-4.71"
"27.153924096","10.59","-3.14","-5.41"
"27.288141824","9.14","-5.33","-3.14"
"27.330084864000003","7.69","-1.80","-3.26"
"27.405582336000002","7.49","-0.78","-1.61"
"27.489468416","7.02","-2.08","-1.41"
"27.573354496","13.65","-2.59","-0.47"
"27.648851968000002","15.10","-1.22","-5.18"
"27.732738048","4.20","-2.08","-4.00"
"27.816624128","7.73","-0.94","-4.79"
"27.917287424","11.34","-2.63","-3.96"
"27.984396288000003","7.69","-2.90","-3.30"
"28.051505152","6.75","-3.49","-1.69"
"28.127002624000003","8.39","-3.10","-1.88"
"28.194111488","15.53","-4.28","-4.00"
"28.286386176","10.63","-7.53","-4.86"
"28.370272256000003","5.61","1.69","-5.22"
"28.454158336000003","9.65","-5.30","-4.31"
"28.56321024","7.92","-3.26","-3.53"
"28.621930496","8.55","-1.49","-2.63"
"28.705816576","6.75","-1.10","-1.02"
"28.764536832","9.81","-1.57","-6.00"
"28.873588736000002","15.65","-5.30","-7.02"
"28.957474816","9.02","-1.26","-4.31"
"29.418848256","3.92","-3.30","-4.39"
"29.913776128000002","12.63","-2.55","-3.92"
"29.94733056","6.35","-2.55","-3.33"
"29.955719168","7.14","-3.80","-2.16"
"29.964107776000002","8.12","-3.06","-0.755.88"
"29.9892736","7.22","-1.14","-0.43"
"30.073159680000003","13.30","-3.61","-2.00"
"30.157045760000003","19.93","-4.04","-8.00"
"30.249320448000002","5.14","0.31","-4.55"
"30.32481792","10.36","-2.51","-4.39"
"30.391926784000002","11.06","-2.43","-3.57"
"30.492590080000003","7.45","-2.63","-2.79"
"30.576476160000002","7.10","-4.20","-0.59"
"30.635196416000003","5.69","-2.51","-3.14"
"30.727471104000003","13.38","-3.88","-2.94"
"30.794579968","8.12","-5.88","-5.10"
"30.928797696","4.75","0.86","-4.00"
"30.99590656","10.47","-6.20","-4.82"
"31.063015424000003","9.02","-2.28","-3.73"
"31.130124288","7.85","-0.90","-2.35"
"31.205621760000003","6.43","-1.65","-0.75"
"31.289507840000002","12.75","-3.18","-3.41"
"31.37339392","17.34","-3.96","-5.22"
"31.465668608","5.26","-0.94","-4.59"
"31.549554688","8.00","-2.16","-3.92"
"31.608274944","13.81","-2.90","-5.06"
"31.742492672","7.73","-2.51","-2.94"
"31.809601536000002","6.55","-3.53","-1.49"
"31.8767104","8.24","-2.16","-0.75"
"31.943819264000002","13.89","-2.55","-2.04"
"32.010928128","13.14","-7.18","-3.88"
"32.094814208","3.65","-1.14","-5.45"
"32.187088896","12.43","-3.96","-5.65"
"32.270974976000005","8.20","-4.98","-3.02"
"32.354861056000004","7.41","-1.22","-3.14"
"32.430358528","7.34","-0.55","-1.92"
"32.514244608","9.22","-2.28","-2.98"
"32.598130688000005","14.08","-1.37","-2.51"
"32.698793984000005","12.32","-0.20","-4.63"
"32.774291456","1.77","-2.35","-5.45"
"32.841400320000005","9.65","-3.10","-2.79"
"32.908509184","6.00","-0.98","-4.31"
"33.042726912","8.71","-3.88","-2.82"
"33.109835776000004","8.12","-4.28","-1.14"
"33.151778816000004","6.39","-3.80","-2.59"
"33.235664896","14.71","-3.06","-5.61"
"33.319550976","3.65","-4.90","-4.59"
"33.403437056","11.14","-0.24","-4.20"
"33.462157312","8.79","-5.41","-2.43"
"33.546043392","7.96","-2.55","-3.41"
"33.680261120000004","7.18","-0.86","-1.92"
"33.738981376000005","6.90","-1.88","-0.86"
"33.814478848","14.47","-1.88","-1.92"
"33.881587712000005","16.16","-1.37","-5.88"
"34.01580544","3.45","-2.79","-4.90"
"34.082914304","7.37","-1.80","-4.47"
"34.108080128000005","12.47","-2.00","-4.43"
"34.191966208000004","8.20","-3.92","-3.22"
"34.284240896","7.06","-3.33","-1.37"
"34.376515584","7.41","-3.41","-2.47"
"34.435235840000004","13.61","-5.49","-2.51"
"34.51912192","13.38","-7.85","-6.71"
"34.628173824","4.51","1.29","-3.49"
"34.695282688","11.65","-7.77","-3.30"
"34.762391552000004","7.34","-1.92","-3.37"
"34.89660928","7.49","-1.61","-3.10"
"34.930163712","8.51","-1.02","-1.41"
"35.903242240000004","9.41","-3.61","-4.20"
"36.398170112","14.95","-5.81","-5.14"
"36.893097984","8.67","-0.31","-5.73"
"36.901486592000005","5.96","-2.98","-5.26"
"37.413191680000004","12.04","-2.47","-3.925.53"
"37.891342336","10.04","0.47","-4.31"
"38.386270208","7.41","-2.63","-3.49"
"38.403047424","7.34","-3.80","-2.317.88"
"38.411436032000005","6.20","-3.61","-2.94"
"38.470156288000005","6.16","-3.26","-0.98"
"38.495322112000004","8.08","-3.80","-2.82"
"38.50371072","10.24","-2.94","-0.0414.12"
"38.520487936","9.02","-8.55","-2.51"
"38.528876544","6.00","-0.98","-2.59"
"38.579208192","8.79","-1.57","-3.18"
"38.663094272","8.51","-1.26","-0.75"
"38.755368960000006","8.90","-3.37","-4.12"
"38.822477824","14.87","-8.24","-4.08"
"38.906363904","8.83","-0.51","-5.49"
"38.998638592","4.82","-1.84","-5.10"
"39.057358848","12.63","-1.92","-5.02"
"39.141244928","7.02","-3.06","-3.18"
"39.225131008000005","7.49","-3.18","-2.08"
"39.309017088000004","8.24","-2.71","-1.57"
"39.418068992","12.36","-2.43","-2.08"
"39.485177856","13.89","-5.84","-5.45"
"39.552286720000005","6.59","-0.08","-3.53"
"39.619395584","9.45","-5.61","-4.43"
"39.72005888","8.32","-3.26","-3.37"
"39.787167744","5.92","-0.86","-2.63"
"39.871053824","8.51","-2.16","-2.04"
"39.954939904","8.51","-2.39","-3.22"
"40.047214592","13.53","-1.10","-0.86"
"40.105934848000004","11.77","-1.88","-4.08"
"40.189820928","4.43","-1.88","-3.65"
"40.273707008","8.83","-2.59","-5.22"
"40.349204480000004","11.26","-1.80","-3.14"
"40.483422208","6.75","-2.55","-2.90"
"40.550531072000005","6.35","-3.80","-0.75"
"40.626028544","8.51","-3.61","-3.41"
"40.701526016","11.69","-4.90","-1.10"
"40.751857664","10.98","-10.00","-5.22"
"40.844132352","4.39","-0.39","-3.06"
"40.936407040000006","10.00","-5.57","-3.65"
"41.020293120000005","8.63","-3.10","-2.43"
"41.079013376000006","6.86","-1.06","-2.59"
"41.162899456000005","8.79","-2.24","-1.57"
"41.246785536000004","8.51","-1.73","-3.30"
"41.322283008","13.53","-2.98","-2.79"
"41.456500736","11.30","-0.67","-4.82"
"41.5236096","5.37","-3.88","-3.96"
"41.590718464000005","6.79","-1.53","-3.45"
"41.657827328","10.51","-2.00","-3.73"
"41.741713408","6.94","-4.20","-2.39"
"41.808822272","7.06","-3.18","-0.51"
"41.892708352","6.00","-3.73","-2.35"
"41.976594432000006","14.16","-5.06","-3.49"
"42.060480512000005","6.32","-2.82","-3.80"
"42.135977984","9.73","-1.65","-2.98"
"42.219864064","8.79","-4.24","-1.65"
"42.295361536","7.73","-1.10","-2.24"
"42.429579264000004","7.34","-1.96","-1.88"
"42.496688128","8.08","-2.28","-2.08"
"42.563796992","14.16","-1.18","-0.31"
"42.639294464","14.00","-2.94","-3.69"
"42.69801472","5.10","-2.55","-4.82"
"42.7819008","9.89","-2.47","-3.61"
"42.874175488000006","9.06","-1.65","-3.61"
"42.94967296","6.35","-2.55","-3.02"
"43.041947648000004","7.92","-3.88","-1.69"
"43.125833728","7.22","-4.16","-3.06"
"43.184553984000004","13.81","-3.10","-2.98"
"43.318771712","7.69","-4.51","-4.43"
"43.385880576000005","8.24","0.04","-3.80"
"43.880808448","9.10","-5.92","-3.30"
"44.37573632","6.55","-1.14","-2.98"
"44.41767936","8.98","-1.96","-2.24"
"44.426067968000005","7.53","-1.69","-1.57"
"44.426067968000005","14.32","-2.16","-2.0414.44"
"44.484788224000006","10.94","-9.49","-6.00"
"44.568674304000005","5.84","1.02","-3.73"
"44.652560384000004","10.28","-7.81","-3.33"
"44.744835072","6.94","-2.35","-2.47"
"44.820332544","8.08","-1.84","-2.35"
"44.887441408","7.96","-1.14","-0.86"
"44.971327488","10.40","-2.94","-5.49"
"45.055213568000006","16.16","-5.84","-6.04"
"45.139099648000006","9.10","-1.18","-4.71"
"45.264928768000004","5.92","-3.53","-2.98"
"45.34042624","9.61","-1.61","-5.57"
"45.399146496","9.53","-3.02","-3.02"
"45.449478144000004","7.57","-2.86","-2.63"
"45.541752832","6.90","-2.51","-0.55"
"45.625638912","5.57","-3.57","-3.61"
"45.709524992000006","12.32","-4.16","-2.98"
"45.793411072000005","5.41","-3.57","-4.82"
"45.88568576","7.06","-0.24","-3.22"
"45.944406016","10.94","-8.90","-4.71"
"46.028292096","9.34","-1.77","-3.69"
"46.103789568","7.30","-1.22","-2.47"
"46.238007296000006","6.98","-1.77","-1.37"
"46.305116160000004","11.96","-4.79","-1.18"
"46.355447808","14.75","-2.51","-3.26"
"46.447722496000004","3.77","-3.18","-4.16"
"46.523219968","8.94","-0.67","-3.18"
"46.590328832000004","9.26","-1.84","-3.80"
"46.674214912000004","7.14","-3.69","-2.75"
"46.758100992","7.34","-2.75","-2.04"
"46.841987072","8.67","-4.47","-3.41"
"46.934261760000005","14.08","-3.69","-3.49"
"46.992982016000006","8.12","-8.00","-4.86"
"47.135588352000006","8.71","1.53","-4.82"
"47.202697216000004","8.08","-7.61","-0.63"
"47.26980608","12.16","-2.39","-3.57"
"47.336914944","6.90","-2.24","-0.86"
"47.3956352","6.39","-1.69","-0.98"
"47.487909888000004","12.08","-2.31","-5.30"
"47.580184576","15.93","-1.53","-6.59"
"47.655682048","9.81","-0.12","-4.98"
"47.756345344","4.94","-4.04","-3.45"
"47.815065600000004","10.90","-3.53","-2.47"
"47.890563072000006","8.00","-1.26","-2.79"
"48.016392192000005","6.12","-2.63","-1.84"
"48.083501056","8.00","-3.73","-0.63"
"48.15060992","15.57","-1.06","-0.43"
"48.209330176","12.98","-7.49","-3.65"
"48.301604864000005","4.24","-1.14","-3.73"
"48.385490944000004","10.32","-2.98","-4.90"
"48.469377024","10.08","-4.98","-2.28"
"48.536485888","8.16","-1.77","-2.90"
"48.620371968","7.18","-0.12","-1.57"
"48.704258048","7.77","-1.61","-3.14"
"48.788144128000006","18.59","-4.04","-7.41"
"48.872030208000005","9.34","-0.75","-4.08"
"48.972693504000006","4.43","-3.45","-4.43"
"49.048190976","10.55","-1.33","-3.96"
"49.115299840000006","7.30","-2.59","-3.06"
"49.182408704000004","7.41","-3.77","-2.12"
"49.266294784","7.49","-2.86","-0.51"
"49.358569472000006","11.77","-1.26","-0.47"
"49.861885952","12.67","-6.24","-4.51"
"50.365202432000004","5.33","-0.71","-4.24"
"50.398756864000006","7.30","-3.49","-4.35"
"50.398756864000006","10.47","-4.47","-3.53"
"50.407145472","8.47","-1.88","-3.146.79"
"50.432311296","9.45","-4.20","-2.67"
"50.482642944000006","7.18","-4.16","-0.59"
"50.566529024000005","7.45","-4.35","-3.53"
"50.642026496","13.45","-2.59","-4.04"
"50.717523968","8.87","-5.69","-5.06"
"50.801410048","6.75","0.67","-3.41"
"50.910461952000006","9.02","-7.65","-3.06"
"50.985959424","6.28","-1.41","-3.41"
"51.04467968","9.45","-1.37","-2.79"
"51.153731584000006","8.36","-1.77","-1.10"
"51.21245184","14.28","-1.45","1.18"
"51.296337920000006","13.06","-2.28","-4.28"
"51.380224000000005","4.08","-2.51","-5.45"
"51.464110080000005","9.06","-1.41","-3.84"
"51.547996160000004","8.87","-1.49","-4.08"
"51.615105024","8.67","-3.33","-2.75"
"51.698991104","6.43","-3.73","-0.67"
"51.774488576","7.49","-3.92","-3.69"
"51.917094912","12.36","-2.24","-3.02"
"52.051312640000006","9.61","-5.14","-5.45"
"52.101644288","6.55","0.43","-3.53"
"52.126810112","9.81","-6.90","-3.30"
"52.177141760000005","7.34","-1.41","-2.75"
"52.261027840000004","7.57","-2.04","-2.67"
"52.353302528","8.04","-1.61","-0.90"
"52.4288","12.47","-3.10","-2.82"
"52.521074688000006","15.18","-3.61","-4.75"
"52.57979494400001","5.49","-1.65","-4.51"
"52.672069632","7.81","-2.16","-4.20"
"52.755955712","12.04","-1.26","-4.86"
"52.823064576","7.88","-3.33","-3.37"
"52.957282304","6.79","-3.69","-1.53"
"53.024391168","8.71","-3.33","-1.92"
"53.074722816000005","12.87","-3.14","-1.18"
"53.166997504","13.61","-8.28","-5.02"
"53.250883584","5.26","0.75","-3.77"
"53.317992448000005","6.32","-5.10","-2.94"
"53.401878528000005","7.81","-4.35","-3.06"
"53.485764608000004","9.65","-1.77","-2.75"
"53.569650688","7.65","-1.37","-1.69"
"53.628370944000004","8.24","-0.71","-4.59"
"53.754200064","15.46","-5.22","-5.65"
"53.821308928","10.90","-0.59","-4.55"
"53.8968064","2.79","-3.61","-4.75"
"53.955526656","10.28","-1.84","-4.51"
"54.056189952000004","8.39","-2.00","-3.96"
"54.123298816","8.39","-3.26","-2.47"
"54.198796288000004","6.94","-3.49","-0.90"
"54.291070976","9.02","-2.59","-2.16"
"54.383345664000004","13.53","-4.75","-5.30"
"54.442065920000005","6.43","-3.22","-4.28"
"54.542729216000005","6.28","-0.75","-4.12"
"54.618226688","9.61","-4.43","-4.04"
"54.718889984","7.61","-2.24","-2.71"
"54.785998848000006","7.65","-1.14","-2.20"
"54.853107712","6.08","-1.33","-2.24"
"54.94538240000001","13.89","-3.37","0.67"
"55.029268480000006","19.26","-4.24","-7.02"
"55.096377344000004","6.94","-0.98","-4.75"
"55.171874816000006","6.86","-2.43","-3.96"
"55.264149504","12.51","-2.86","-4.59"
"55.348035584","8.71","-2.86","-3.14"
"55.851352064000004","7.10","-3.02","-1.69"
"56.37144576","8.08","-3.02","-1.10"
"56.379834368000004","18.36","-6.98","-2.79"
"56.388222976","11.96","-8.43","-6.39"
"56.41338880000001","5.37","0.35","-3.3012.47"
"56.421777408000004","4.67","-4.31","-3.41"
"56.488886272","14.98","-0.43","-3.77"
"56.581160960000005","5.49","-3.65","-2.67"
"56.656658432","7.02","-3.33","-1.96"
"56.715378688","8.12","-2.94","-0.59"
"56.857985024","12.51","-1.22","-0.35"
"56.899928064","14.04","-5.57","-5.57"
"56.975425536","3.53","-1.41","-3.80"
"57.059311616","11.22","-4.90","-4.86"
"57.12642048","9.10","-3.49","-3.14"
"57.21030656000001","7.61","-1.49","-3.92"
"57.294192640000006","7.22","-0.63","-1.92"
"57.378078720000005","8.71","-1.06","-2.28"
"57.470353408","13.42","-2.98","-1.57"
"57.529073664","12.12","-1.14","-5.30"
"57.604571136000004","3.18","-2.79","-4.31"
"57.73878886400001","7.77","-1.18","-5.65"
"57.805897728000005","10.20","-1.69","-3.84"
"57.864617984000006","7.30","-2.67","-2.79"
"57.931726848000004","5.88","-3.53","-0.94"
"58.015612928","8.59","-4.28","-3.49"
"58.107887616000006","13.34","-3.61","-3.92"
"58.191773696000006","8.79","-5.81","-4.79"
"58.275659776000005","5.53","0.55","-3.61"
"58.334380032000006","12.75","-6.67","-4.86"
"58.418266112000005","8.51","-2.94","-2.20"
"58.55248384","8.12","-2.63","-2.71"
"58.611204096","5.96","-0.94","-0.82"
"58.67831296000001","10.94","-1.88","-4.71"
"58.745421824000005","15.61","-6.47","-6.35"
"58.837696512","9.06","-0.24","-4.86"
"58.913193984","4.90","-1.49","-5.14"
"58.997080064","12.87","-4.51","-4.00"
"59.06418892800001","7.57","-1.18","-3.45"
"59.148075008000006","7.22","-2.51","-2.28"
"59.231961088000006","7.57","-3.80","-0.82"
"59.324235776","9.18","-2.82","-1.92"
"59.408121856","13.34","-7.02","-5.33"
"59.517173760000006","2.90","-1.65","-4.59"
"59.592671232","12.55","-4.47","-3.84"
"59.659780096000006","8.36","-3.33","-3.06"
"59.726888960000004","7.57","-2.79","-2.82"
"59.802386432000006","7.45","-0.20","-2.16"
"59.877883904","8.08","-1.06","-3.10"
"59.96176998400001","14.59","-5.37","-5.06"
"60.045656064000006","11.38","-0.43","-4.47"
"60.129542144000006","2.63","-2.31","-4.16"
"60.221816832","10.04","-3.41","-4.98"
"60.280537088","8.08","-2.00","-3.84"
"60.364423168","8.28","-2.39","-2.59"
"60.465086464","6.79","-3.77","-0.98"
"60.532195328","8.08","-2.79","-2.12"
"60.599304192000005","14.79","-4.82","-4.31"
"60.69157888","6.79","-4.79","-4.94"
"60.783853568000005","7.45","-0.51","-4.51"
"60.842573824000006","8.71","-5.53","-3.06"
"60.926459904000005","7.57","-2.31","-2.86"
"61.010345984000004","7.81","-1.10","-2.20"
"61.094232064","7.45","-1.69","-0.90"
"61.178118144","14.00","-3.18","-2.31"
"61.270392832000006","17.53","-3.77","-5.26"
"61.354278912000005","5.18","-0.90","-4.12"
"62.335746048000004","7.88","-2.43","-4.47"
"62.822285312000005","10.98","-2.75","-3.49"
"62.83067392","7.92","-2.04","-2.90"
"63.325601792","6.20","-3.96","-1.18"
"63.342379008","7.53","-3.26","-2.0015.81"
"63.828918272","6.98","-3.37","-1.84"
"63.83730688000001","8.16","-2.63","-1.18"
"64.323846144","18.59","-5.14","-2.71"
"64.349011968","12.20","-8.20","-4.713.69"
"64.835551232","4.00","-2.59","-4.31"
"64.860717056","11.53","-2.31","-4.317.92"
"64.869105664","7.53","-4.08","-2.167.10"
"64.91104870400001","15.61","-4.28","-6.63"
"64.978157568","10.59","-0.39","-4.28"
"65.070432256","2.90","-2.71","-4.31"
"65.13754112000001","10.63","-1.96","-4.51"
"65.26337024","9.34","-1.14","-3.80"
"65.330479104","7.37","-3.84","-2.31"
"65.39758796800001","6.28","-3.45","-0.51"
"65.456308224","9.22","-2.79","-2.47"
"65.54019430400001","14.12","-4.98","-4.71"
"65.632468992","4.98","-2.51","-2.94"
"65.70796646400001","9.85","-4.67","-3.33"
"65.800241152","8.20","-3.92","-2.67"
"65.884127232","9.06","-1.06","-2.75"
"65.942847488","7.61","-0.86","-1.22"
"66.026733568","8.75","-0.98","-5.41"
"66.119008256","17.69","-5.10","-8.32"
"66.18611712","9.57","-0.94","-3.92"
"66.328723456","5.88","-3.33","-4.00"
"66.39583232000001","9.89","-2.28","-4.55"
"66.43777536","8.32","-1.73","-3.30"
"66.52166144","7.30","-4.24","-2.20"
"66.613936128","7.53","-3.33","-1.33"
"66.697822208","15.93","-2.98","-1.37"
"66.77331968","12.59","-8.20","-4.71"
"66.840428544","4.47","-0.51","-3.69"
"66.924314624","10.63","-5.02","-4.28"
"67.008200704","9.18","-3.41","-2.55"
"67.092086784","8.36","-2.31","-3.14"
"67.15919564800001","6.59","-0.71","-1.45"
"67.30180198400001","8.20","-1.61","-3.10"
"67.368910848","14.83","-3.57","-6.79"
"67.41924249600001","10.63","-1.41","-5.96"
"67.50312857600001","4.82","-2.82","-4.35"
"67.57023744","10.43","-1.57","-3.37"
"67.65412352","7.22","-2.08","-3.22"
"67.7380096","6.86","-3.92","-1.26"
"67.82189568","6.83","-1.57","-1.96"
"67.90578176000001","11.53","-3.14","-1.06"
"67.98966784000001","12.59","-6.63","-4.00"
"68.04838809600001","4.75","-0.67","-3.30"
"68.19099443200001","7.96","-2.67","-5.57"
"68.258103296","9.02","-4.28","-2.47"
"68.32521216","8.47","-2.20","-3.18"
"68.392321024","6.55","-0.75","-1.29"
"68.459429888","8.90","-1.45","-4.00"
"68.543315968","17.30","-6.04","-8.94"
"68.627202048","9.69","-0.12","-3.80"
"68.711088128","4.55","-3.73","-4.63"
"68.78658560000001","9.92","-1.88","-3.45"
"68.887248896","6.79","-1.80","-4.16"
"68.945969152","8.47","-3.92","-2.31"
"69.021466624","8.04","-3.37","-0.78"
"69.16407296","15.81","-2.63","-1.49"
"69.231181824","11.69","-6.20","-3.53"
"69.29829068800001","5.49","-2.08","-3.77"
"69.365399552","7.61","-2.63","-3.96"
"69.44089702400001","10.75","-5.14","-4.12"
"69.508005888","9.69","-2.51","-3.37"
"69.591891968","6.59","-1.33","-2.08"
"69.675778048","7.69","-1.10","-3.06"
"69.768052736","14.36","-0.35","-0.86"
"69.851938816","12.87","-0.94","-4.67"
"70.32170086400001","4.51","-3.02","-4.47"
"70.80824012800001","8.16","-2.31","-3.41"
"70.850183168","9.02","-0.82","-3.96"
"70.858571776","8.36","-4.35","-2.31"
"70.8837376","6.55","-2.86","-0.828.00"
"70.900514816","7.26","-1.96","-2.75"
"71.001178112","15.06","-0.31","-2.35"
"71.06828697600001","12.47","-1.96","-4.90"
"71.13539584","3.77","-3.30","-5.02"
"71.21089331200001","9.89","-1.77","-3.77"
"71.303168","7.45","-1.10","-3.69"
"71.395442688","7.02","-3.37","-3.33"
"71.46255155200001","8.00","-4.35","-1.22"
"71.546437632","6.94","-4.39","-2.71"
"71.63871232000001","13.30","-3.18","-3.69"
"71.714209792","8.71","-6.47","-6.32"
"71.798095872","7.22","1.69","-4.00"
"71.856816128","9.34","-6.55","-4.24"
"71.965868032","8.98","-2.12","-3.30"
"72.03297689600001","9.69","-1.45","-3.22"
"72.10008576","6.35","-1.37","-1.02"
"72.192360448","11.69","-2.35","-4.63"
"72.26785792000001","17.42","-3.96","-7.57"
"72.360132608","7.65","-0.78","-4.67"
"72.444018688","6.86","-2.86","-3.22"
"72.527904768","10.24","-1.84","-4.98"
"72.595013632","9.61","-2.82","-2.98"
"72.670511104","7.57","-3.33","-2.16"
"72.754397184","8.16","-3.02","-1.33"
"72.838283264","17.34","-4.79","-2.51"
"72.913780736","12.87","-8.75","-5.73"
"73.056387072","4.75","1.22","-3.77"
"73.123495936","10.51","-5.77","-4.00"
"73.165438976","8.16","-3.49","-3.18"
"73.25771366400001","8.98","-2.16","-3.06"
"73.31643392000001","7.06","-1.41","-1.53"
"73.40032000000001","8.59","-2.12","-4.47"
"73.48420608","13.49","-4.94","-6.59"
"73.56809216","10.71","-0.55","-6.71"
"73.643589632","5.81","-2.59","-4.00"
"73.727475712","9.10","-0.55","-4.00"
"73.811361792","7.96","-1.88","-3.80"
"73.88685926400001","7.92","-4.24","-2.00"
"74.021076992","7.69","-2.63","-0.78"
