"NAME:","elon0"
"EXPERIMENT TIME:","Thu Jun 01 12:05:19 GMT+03:00 2023"
"ACTIVITY TYPE:","Walking"
"COUNTS OF ACTUAL STEPS:","95"
"  "," "
"Time [sec]","ACC X","ACC Y","ACC Z"
"0","-8.90","5.77","-2.47"
"0.008388608","-9.02","5.81","-2.39"
"0.016777216","-9.14","5.57","-1.69"
"0.025165824000000003","-9.30","5.26","-1.33"
"0.033554432","-8.87","4.51","-1.06-8.87"
"0.08388608","-9.77","5.06","-0.59"
"0.16777216","-8.87","4.75","-0.78"
"0.25165824000000003","-8.83","5.10","-0.63"
"0.32715571200000004","-9.34","4.71","-0.67"
"0.46976204800000004","-12.59","4.90","-0.55"
"0.536870912","-11.81","5.33","-1.92"
"0.595591168","-5.65","5.10","-3.49"
"0.662700032","-9.85","5.14","-2.35"
"0.7549747200000001","-8.67","5.26","-2.51"
"0.8136949760000001","-7.61","6.90","-2.43"
"0.905969664","-7.14","7.18","-2.00"
"0.9898557440000001","-6.12","6.71","-1.26"
"1.073741824","-8.83","7.92","-1.96"
"1.1576279040000002","-9.81","7.41","0.43"
"1.283457024","-11.45","11.57","-3.22"
"1.350565888","-5.02","4.39","-5.10"
"1.4092861440000002","-9.49","6.43","-1.65"
"1.484783616","-7.65","6.71","-1.14"
"1.543503872","-7.34","3.14","-0.12"
"1.6273899520000001","-6.28","3.30","-0.31"
"1.711276032","-12.12","8.20","-3.02"
"1.795162112","-10.00","4.39","2.04"
"1.8874368000000001","-8.24","5.14","-5.26"
"1.954545664","-12.94","11.22","-0.31"
"2.0552089600000003","-6.59","5.33","-1.18"
"2.105540608","-5.45","5.41","-1.53"
"2.239758336","-5.53","6.08","-2.04"
"2.3068672","-8.71","5.96","-2.39"
"2.3739760640000003","-11.57","11.14","-0.55"
"2.441084928","-9.53","5.61","-7.14"
"2.524971008","-9.22","9.61","-0.31"
"2.608857088","-5.06","5.41","-1.22"
"2.6927431680000002","-6.94","3.77","-2.12"
"2.7766292480000003","-7.61","3.06","-0.75"
"2.868903936","-9.61","5.02","-1.69"
"2.9192355840000004","-9.14","6.75","0.90"
"3.011510272","-5.33","5.10","-4.28"
"3.10378496","-15.81","9.02","-2.28"
"3.18767104","-5.61","5.73","-0.04"
"3.263168512","-4.04","4.75","-1.84"
"3.330277376","-5.96","6.08","-2.12"
"3.430940672","-9.30","8.59","-3.41"
"3.4980495360000003","-7.06","7.69","0.63"
"3.5735470080000002","-5.92","4.08","-6.51"
"3.665821696","-11.06","12.94","-0.12"
"3.749707776","-5.49","4.94","-1.69"
"3.808428032","-4.39","3.57","-1.41"
"3.9007027200000004","-7.81","2.79","0.35"
"3.9929774080000002","-14.40","12.98","-0.31"
"4.076863488","-11.53","4.82","2.08"
"4.15236096","-1.57","4.35","-4.55"
"4.219469824","-14.28","6.67","-6.47"
"4.353687552","-6.47","6.43","-1.73"
"4.378853376","-2.79","5.57","-1.45"
"4.462739456","-6.16","5.41","-0.90"
"4.5466255360000005","-12.04","13.10","-0.59"
"4.622123008","-7.41","13.30","-2.71"
"4.706009088","-6.83","2.94","-1.80"
"4.789895168","-12.59","6.28","-4.04"
"4.882169856","-5.92","4.75","-2.86"
"4.949278720000001","-5.37","2.59","-1.29"
"5.033164800000001","-7.92","3.06","0.86"
"5.494538240000001","-15.42","10.32","4.55"
"5.99785472","-20.01","8.12","-1.80"
"6.023020544","-6.86","3.53","-1.45"
"6.023020544","-9.85","4.67","-2.82"
"6.031409152","-8.08","6.35","-3.22-3.80"
"6.073352192000001","-7.22","5.26","-2.08"
"6.148849664","-5.06","2.90","-0.75"
"6.20756992","-9.57","4.55","-1.77"
"6.274678784000001","-9.22","6.63","1.88"
"6.325010432","-12.55","6.12","-8.20"
"6.408896512","-11.65","8.36","0.20"
"6.501171200000001","-4.59","2.47","-2.12"
"6.58505728","-5.41","5.84","-1.84"
"6.66894336","-4.59","6.16","-2.08"
"6.736052224000001","-9.34","8.87","-3.61"
"6.819938304000001","-4.79","8.43","1.29"
"6.903824384000001","-4.59","3.65","-7.06"
"7.00448768","-13.02","10.12","0.51"
"7.071596544","-5.10","4.35","-2.00"
"7.1470940160000005","-4.55","3.37","-0.98"
"7.21420288","-7.65","3.02","0.67"
"7.314866176000001","-16.00","12.83","1.73"
"7.415529472","-15.89","6.79","1.53"
"7.474249728","-1.02","2.86","-7.49"
"7.558135808","-12.87","6.59","-5.33"
"7.616856064","-6.16","6.43","-1.84"
"7.709130752","-4.00","5.06","-1.69"
"7.793016832","-5.14","5.65","-1.37"
"7.876902912","-12.28","9.85","-1.88"
"7.9859548160000005","-9.81","12.16","-0.35"
"8.044675072","-3.57","2.51","-3.37"
"8.120172544","-12.04","7.18","-3.26"
"8.187281408","-7.10","4.90","-2.20"
"8.279556096","-5.30","3.26","-0.86"
"8.371830784","-6.83","3.45","0.98"
"8.438939648","-16.12","10.12","4.08"
"8.531214336","-15.22","7.73","1.53"
"8.598323200000001","0.78","1.06","-6.51"
"8.698986496","-12.83","6.24","-3.96"
"8.749318144","-6.94","7.02","-2.55"
"8.841592832","-3.73","5.49","-1.26"
"8.917090304","-6.32","5.73","-0.31"
"9.000976384000001","-11.96","12.55","-1.26"
"9.143582720000001","-10.51","13.53","-4.82"
"9.160359936","-5.81","2.71","-2.47"
"9.252634624","-9.96","5.84","-3.77"
"9.336520704","-7.57","5.06","-1.29"
"9.428795392000001","-5.73","3.26","-1.53"
"9.47912704","-7.37","3.77","0.51"
"9.56301312","-16.16","9.49","3.30"
"9.6468992","-17.30","8.04","0.39"
"9.730785280000001","-0.35","1.14","-5.57"
"9.81467136","-12.83","5.96","-4.35"
"9.906946048","-7.77","6.39","-3.73"
"9.974054912000001","-4.51","6.86","-1.45"
"10.108272640000001","-6.24","5.73","-0.43"
"10.133438464000001","-11.61","11.96","-2.08"
"10.225713152","-10.51","12.00","-1.10"
"10.309599232","-3.53","2.20","-2.00"
"10.368319488000001","-11.30","6.00","-3.37"
"10.452205568","-8.08","4.43","-1.84"
"10.536091648000001","-5.10","3.41","-1.26"
"10.628366336000001","-7.22","2.94","0.71"
"10.712252416","-15.97","11.65","1.37"
"10.829692928","-16.12","6.90","1.69"
"10.9051904","-1.49","2.90","-6.98"
"10.997465088","-12.87","5.84","-5.49"
"11.031019520000001","-6.90","7.14","-1.69"
"11.484004352000001","-3.92","5.18","-2.04"
"11.978932224000001","-5.61","6.32","-1.61"
"11.987320832","-10.94","9.69","-1.53"
"12.004098048000001","-7.69","12.75","-1.41-4.67"
"12.012486656","-3.37","2.63","-4.94"
"12.079595520000002","-11.57","5.18","-3.18"
"12.1634816","-7.77","6.28","-3.14"
"12.255756288","-3.80","6.98","-1.84"
"12.322865152","-6.12","5.92","-0.24"
"12.41513984","-12.00","12.40","-1.73"
"12.482248704000002","-9.85","13.14","-5.77"
"12.566134784","-6.47","4.79","-2.79"
"12.650020864","-10.71","5.88","-4.00"
"12.759072768000001","-7.45","4.82","-3.26"
"12.826181632","-5.96","2.51","-1.29"
"12.893290496","-7.22","4.28","0.00"
"12.985565184","-14.16","6.59","3.06"
"13.069451264000001","-17.81","6.35","-5.81"
"13.12817152","-7.22","4.79","0.98"
"13.212057600000001","-7.14","3.61","-2.63"
"13.304332288000001","-7.77","5.84","-3.73"
"13.388218368","-3.92","7.88","-1.88"
"13.455327232","-7.22","5.61","-2.12"
"13.539213312000001","-14.47","8.87","0.12"
"13.631488000000001","-11.49","10.20","-10.36"
"13.706985472000001","-7.41","10.24","-1.88"
"13.774094336000001","-6.86","5.49","-1.33"
"13.916700672000001","-6.71","3.69","-2.08"
"13.958643712","-6.28","2.12","-1.14"
"14.042529792000002","-10.24","6.00","-3.45"
"14.126415872","-12.40","4.47","-0.82"
"14.185136128000002","-3.84","6.67","-4.12"
"14.277410816000002","-15.46","8.28","-2.00"
"14.361296896","-5.53","5.18","-0.35"
"14.445182976000002","-4.31","5.18","-2.31"
"14.529069056","-5.26","6.20","-1.69"
"14.587789312000002","-8.83","10.79","-4.16"
"14.730395648000002","-8.51","8.90","0.63"
"14.797504512000001","-3.84","1.22","-2.51"
"14.864613376000001","-13.34","8.43","-3.30"
"14.914945024000001","-7.88","3.88","-2.86"
"14.990442496000002","-5.26","3.41","-2.12"
"15.074328576000001","-7.45","3.18","1.49"
"15.158214656","-16.91","11.45","5.22"
"15.258877952","-19.89","10.24","0.55"
"15.3092096","-3.45","1.80","-4.47"
"15.401484288","-11.81","5.30","-3.41"
"15.485370368000002","-8.20","6.83","-4.00"
"15.569256448","-4.55","6.20","-1.14"
"15.644753920000001","-7.18","5.02","0.00"
"15.778971648","-15.38","14.16","-3.26"
"15.846080512","-14.44","11.92","-7.14"
"15.89641216","-5.65","7.41","-0.39"
"15.980298240000002","-8.59","5.33","-2.82"
"16.064184320000003","-7.34","3.57","-2.98"
"16.122904576","-7.18","2.86","-0.43"
"16.215179264","-8.43","5.30","-0.12"
"16.299065344000002","-11.34","5.26","1.77"
"16.374562816","-8.32","4.12","-6.04"
"16.458448896","-11.06","8.51","-0.78"
"16.584278016000003","-5.33","3.06","-1.41"
"16.65138688","-5.73","5.88","-2.35"
"16.718495744000002","-5.06","7.10","-1.84"
"16.785604608","-8.16","5.96","-1.33"
"16.869490688000003","-12.55","7.92","1.41"
"16.953376768000002","-12.55","6.75","-8.16"
"17.968398336","-6.79","13.34","0.43"
"18.463326208","-4.90","4.55","-1.33"
"18.95825408","-5.88","3.49","-2.35"
"18.966642688","-7.45","2.63","-1.06"
"18.983419904","-10.32","6.67","-3.18-10.98"
"19.461570560000002","-16.71","12.63","3.45"
"19.96488704","-18.55","7.81","-0.82"
"20.459814912000002","-2.31","2.47","-5.37"
"20.468203520000003","-11.69","5.65","-3.18-8.08"
"20.476592128","-7.53","3.26","1.10"
"20.493369344","-15.89","9.41","4.79"
"20.501757952000002","-20.01","8.71","-3.69"
"20.501757952000002","-6.16","2.86","-1.77-11.18"
"20.518535168","-7.41","4.28","-2.12"
"20.594032640000002","-5.61","2.67","-1.02"
"20.67791872","-8.71","4.90","-0.78"
"20.745027584000002","-10.20","4.79","1.02"
"20.828913664","-6.35","6.35","-6.04"
"20.912799744","-14.28","8.51","-2.35"
"21.005074432","-4.24","3.73","-1.10"
"21.088960512","-4.71","5.41","-1.84"
"21.147680768","-4.94","6.83","-2.00"
"21.239955456","-9.02","8.75","-3.61"
"21.323841536","-3.26","9.61","-1.61"
"21.3909504","-6.90","3.65","-1.65"
"21.533556736","-13.57","7.92","-2.90"
"21.592276992000002","-5.92","5.49","-2.71"
"21.659385856","-5.73","2.39","-0.51"
"21.709717504","-6.04","2.35","0.39"
"21.801992192","-18.01","12.08","5.77"
"21.885878272000003","-19.73","9.73","-0.24"
"21.969764352000002","-2.08","0.59","-5.22"
"22.062039040000002","-13.65","5.92","-3.26"
"22.137536512","-6.75","7.26","-3.30"
"22.204645376000002","-4.12","5.77","-1.02"
"22.330474496","-6.08","5.81","-0.20"
"22.397583360000002","-12.47","14.36","-3.41"
"22.464692224","-11.02","14.40","-5.26"
"22.531801088","-5.69","3.73","-1.88"
"22.615687168","-10.71","6.32","-3.30"
"22.691184640000003","-6.98","4.04","-2.90"
"22.775070720000002","-6.35","3.18","-0.75"
"22.8589568","-7.53","3.37","-0.20"
"22.951231488","-15.10","8.36","1.96"
"23.018340352000003","-15.53","7.14","-1.26"
"23.102226432000002","-5.69","4.86","-1.49"
"23.19450112","-9.49","5.30","-2.71"
"23.295164416000002","-7.10","6.71","-2.79"
"23.36227328","-4.24","5.53","-1.73"
"23.429382144","-5.81","5.92","-0.43"
"23.496491008000003","-12.40","12.94","-2.55"
"23.597154304","-7.96","12.12","-2.43"
"23.664263168","-5.18","3.02","-2.75"
"23.748149248","-12.16","7.18","-3.53"
"23.832035328","-5.22","5.57","-1.37"
"23.924310016","-5.77","2.79","-1.26"
"23.999807488000002","-6.55","3.37","0.31"
"24.066916352","-16.12","11.26","4.16"
"24.150802432000003","-20.01","9.61","-2.90"
"24.251465728000003","-6.98","3.69","-1.41"
"24.318574592","-9.57","5.06","-2.79"
"24.385683456000002","-7.61","6.79","-2.98"
"24.519901184000002","-4.16","6.32","-1.57"
"24.553455616","-6.90","5.22","-0.16"
"24.637341696","-12.08","13.02","-3.02"
"24.721227776000003","-10.08","14.95","-5.10"
"24.805113856000002","-5.53","3.26","-2.67"
"24.897388544000002","-10.83","6.12","-3.45"
"24.947720192000002","-7.37","4.39","-2.31"
"25.031606272","-5.88","3.10","-0.98"
"25.12388096","-6.75","3.06","0.24"
"25.199378432000003","-16.00","11.41","2.86"
"25.341984768000003","-13.38","8.36","0.90"
"25.409093632","0.59","2.20","-6.86"
"25.45942528","-13.85","7.30","-4.86"
"25.945964544000002","-6.63","6.98","-2.75"
"26.449281024","-4.16","4.79","-2.12"
"26.466058240000002","-6.00","5.14","-1.65"
"26.466058240000002","-10.59","11.02","-2.55"
"26.474446848000003","-5.10","9.38","-1.18-4.82"
"26.491224064","-1.88","2.59","-2.90"
"26.575110144","-12.98","6.67","-3.37"
"26.658996224000003","-7.57","6.98","-3.45"
"26.751270912000003","-3.80","5.92","-1.88"
"26.835156992","-5.92","5.77","-0.78"
"26.919043072","-10.20","10.00","-3.06"
"26.986151936000002","-5.88","12.20","-1.84"
"27.061649408","-8.00","2.08","-5.81"
"27.204255744","-11.14","8.28","-0.78"
"27.262976000000002","-6.00","5.10","-1.53"
"27.330084864000003","-7.14","3.57","-1.69"
"27.38880512","-7.77","3.69","-1.45"
"27.472691200000003","-8.79","5.22","-2.28"
"27.556577280000003","-9.69","6.16","0.78"
"27.640463360000002","-14.47","4.79","-6.90"
"27.707572224000003","-6.20","6.39","-1.80"
"27.791458304000002","-8.08","7.02","-4.20"
"27.900510208","-7.14","6.51","-2.67"
"27.976007680000002","-5.77","6.20","-2.63"
"28.076670976000003","-7.30","6.16","-1.84"
"28.135391232000003","-9.30","5.45","-0.98"
"28.210888704000002","-6.71","9.49","-0.39"
"28.269608960000003","-10.24","7.26","-8.67"
"28.361883648000003","-7.81","8.00","-1.18"
"28.462546944000003","-4.24","5.33","-3.06"
"28.546433024000002","-8.75","4.63","-3.02"
"28.596764672000003","-8.94","5.69","-3.10"
"28.689039360000002","-9.18","4.31","-1.69"
"28.77292544","-8.47","6.79","-0.59"
"28.85681152","-8.24","6.43","0.47"
"28.949086208","-10.67","5.61","0.31"
"29.041360896","-7.65","3.61","-7.30"
"29.116858368000003","-10.59","11.06","-1.10"
"29.183967232","-7.57","4.59","-2.82"
"29.251076096000002","-6.20","6.39","-2.28"
"29.351739392000002","-4.39","5.96","-2.67"
"29.410459648000003","-9.10","7.37","-2.86"
"29.502734336000003","-7.57","13.38","-3.65"
"29.586620416000002","-6.51","7.02","-6.28"
"29.670506496","-7.92","6.67","-3.02"
"29.754392576","-7.06","6.00","-3.22"
"29.813112832","-7.57","4.35","-3.10"
"29.913776128000002","-8.79","3.26","-0.98"
"30.006050816000002","-6.20","3.49","0.12"
"30.073159680000003","-14.20","9.69","1.49"
"30.140268544","-20.01","8.39","-2.67"
"30.232543232","-1.37","0.90","-5.30"
"30.32481792","-12.55","4.43","-2.79"
"30.391926784000002","-7.26","7.53","-3.45"
"30.484201472000002","-4.35","5.96","-1.53"
"30.568087552","-5.18","5.33","-0.35"
"30.626807808000002","-11.18","12.36","-1.53"
"30.710693888","-7.65","13.45","-1.18"
"30.794579968","-5.02","1.96","-3.73"
"30.878466048000003","-11.96","6.79","-3.61"
"30.953963520000002","-7.22","4.35","-1.26"
"31.029460992","-5.30","3.30","-0.51"
"31.163678720000004","-7.57","2.63","0.98"
"31.214010368","-14.79","11.57","1.77"
"31.272730624","-15.85","7.37","1.22"
"31.356616704","1.45","0.67","-6.28"
"31.440502784000003","-14.44","6.04","-6.43"
"31.935430656","-6.00","7.81","-2.16"
"32.447135744","-4.16","5.33","-1.22"
"32.472301568","-5.77","6.55","-0.94"
"32.472301568","-10.04","9.49","-2.51"
"32.489078784","-5.18","9.49","0.78-6.83"
"32.489078784","-1.61","6.47","-5.33"
"32.572964864","-15.85","7.73","-4.86"
"32.648462336","-5.02","5.61","0.35"
"32.740737024000005","-4.55","5.37","-1.80"
"32.866566144000004","-5.14","7.37","-1.61"
"32.933675008","-10.12","8.12","-2.67"
"33.000783872","-6.20","10.40","-0.31"
"33.067892736000005","-6.16","3.26","-5.73"
"33.1350016","-12.40","11.69","-0.31"
"33.21888768","-6.32","4.39","-1.65"
"33.30277376","-4.94","3.61","-1.18"
"33.38665984","-7.61","2.75","0.27"
"33.478934528","-12.83","12.79","-1.96"
"33.562820608","-8.24","2.90","3.02"
"33.621540864","-7.22","8.90","-3.14"
"33.705426944","-12.47","9.30","0.86"
"33.839644672","-4.94","4.86","0.08"
"33.898364928","-5.61","4.98","-2.04"
"33.965473792000004","-4.94","6.79","-1.49"
"34.024194048000005","-9.38","7.02","-2.86"
"34.108080128000005","-8.51","9.18","-0.35"
"34.200354816","-5.26","3.06","-5.37"
"34.292629504000004","-12.36","11.77","-1.49"
"34.351349760000005","-6.39","4.75","-1.88"
"34.435235840000004","-5.69","3.26","-0.59"
"34.535899136000005","-7.14","3.02","-0.04"
"34.594619392000006","-11.61","9.73","-2.39"
"34.678505472000005","-14.08","7.30","-0.08"
"34.779168768000005","-0.78","1.73","-5.41"
"34.846277632","-14.67","5.37","-5.77"
"34.913386496","-5.84","7.06","-2.08"
"34.997272576","-3.84","4.98","-1.18"
"35.089547264000004","-5.77","6.63","-1.49"
"35.156656128","-10.55","8.55","-3.57"
"35.240542208","-5.65","11.92","-0.31"
"35.324428288","-7.57","2.94","-2.98"
"35.416702976","-11.85","8.83","-1.84"
"35.500589056","-6.08","5.49","-1.22"
"35.584475136","-5.26","3.14","-0.82"
"35.643195392","-7.77","2.47","0.98"
"35.743858688","-13.73","13.38","1.22"
"35.827744768","-14.75","6.63","1.92"
"35.894853632","-1.45","3.30","-8.08"
"35.987128320000004","-15.06","7.14","-6.63"
"36.062625792000006","-4.98","6.12","-0.78"
"36.129734656000004","-3.80","5.06","-1.92"
"36.213620736","-5.81","6.51","-2.04"
"36.297506816","-10.00","9.45","-0.90"
"36.381392896","-5.02","11.96","-1.37"
"36.456890368","-6.32","3.77","-3.96"
"36.540776448","-12.55","8.79","-2.28"
"36.633051136","-5.10","5.02","-2.12"
"36.700160000000004","-5.65","3.10","-0.98"
"36.834377728","-7.49","2.51","-0.20"
"36.901486592000005","-13.42","11.49","0.47"
"36.960206848000006","-9.77","5.10","2.98"
"37.044092928000005","-2.43","3.96","-6.28"
"37.102813184000006","-14.63","8.20","-4.86"
"37.20347648","-4.90","5.26","-0.35"
"37.287362560000005","-4.43","5.69","-1.53"
"37.362860032","-4.94","6.90","-1.80"
"37.438357504","-11.61","7.41","-1.45"
"37.908119552","-3.30","12.79","-1.45"
"38.41982464","-8.08","3.18","-6.04"
"38.428213248000006","-10.79","11.18","-0.24"
"38.906363904","-5.77","4.90","-0.82"
"38.931529728","-5.88","3.57","-1.41-7.06"
"39.409680384000005","-5.22","6.35","-2.59"
"39.912996864","-11.06","6.90","-3.57"
"39.912996864","-6.43","10.20","-1.10"
"39.921385472000004","-6.90","3.65","-5.37-11.96"
"40.407924736000005","-4.55","6.24","-0.43"
"40.911241216","-3.53","5.65","-1.73"
"40.928018432","-5.45","6.86","-1.61"
"40.928018432","-8.87","7.96","-3.73-5.92"
"40.944795648","-1.14","5.73","-5.69"
"40.944795648","-14.59","7.26","-5.88"
"40.944795648","-4.79","5.65","-0.47"
"40.944795648","-4.16","5.84","-1.41-5.49"
"40.995127296","-6.83","2.86","-6.59"
"41.095790592","-12.55","10.71","0.04"
"41.146122240000004","-6.08","5.06","-1.80"
"41.238396928","-6.00","3.02","-1.22"
"41.322283008","-6.94","2.94","0.16"
"41.406169088000006","-10.43","7.30","-3.45"
"41.490055168000005","-9.69","3.06","0.31"
"41.632661504000005","-3.88","5.69","-4.12"
"41.699770368","-13.89","10.04","-3.22"
"41.733324800000005","-5.73","4.71","-0.82"
"41.817210880000005","-4.67","5.92","-1.22"
"41.901096960000004","-5.53","6.35","-1.53"
"41.968205824","-8.39","7.14","-3.80"
"42.052091904","-7.73","5.73","2.82"
"42.135977984","-14.04","11.18","-7.53"
"42.219864064","-6.59","6.71","-0.39"
"42.295361536","-8.12","5.53","-1.06"
"42.3624704","-8.79","4.94","-2.75"
"42.505076736","-6.39","2.94","-0.94"
"42.580574208","-7.45","3.65","-0.08"
"42.639294464","-12.24","5.10","1.73"
"42.69801472","-15.69","3.88","-6.90"
"42.7819008","-6.63","6.28","0.90"
"42.86578688","-8.20","3.45","-2.75"
"42.941284352000004","-7.06","6.43","-2.90"
"43.025170432","-5.10","6.67","-1.10"
"43.109056512","-7.65","6.04","-0.94"
"43.201331200000006","-11.65","10.94","-1.26"
"43.276828672","-13.34","12.08","-7.65"
"43.402657792","-5.65","8.32","-0.12"
"43.469766656000004","-7.73","5.92","-1.57"
"43.53687552","-7.10","3.65","-3.18"
"43.595595776","-7.02","3.33","-0.55"
"43.679481856","-7.73","3.41","-0.27"
"43.763367936","-11.49","6.86","2.94"
"43.847254016","-17.93","5.18","-5.41"
"43.914362880000006","-6.39","5.10","1.49"
"43.998248960000005","-8.75","2.79","-2.55"
"44.082135040000004","-6.83","7.14","-2.90"
"44.174409728","-4.94","6.94","-1.10"
"44.241518592000006","-7.45","6.04","-1.10"
"44.358959104","-12.12","10.67","-1.26"
"44.41767936","-12.98","8.98","-9.38"
"44.484788224000006","-7.30","10.90","-0.63"
"44.551897088000004","-6.20","4.82","-1.33"
"44.635783168","-7.22","4.04","-2.55"
"44.719669248","-7.41","3.10","-0.82"
"44.803555328","-8.39","4.47","-1.61"
"44.895830016000005","-10.20","7.45","0.31"
"44.971327488","-13.02","5.49","-4.51"
"45.055213568000006","-9.18","6.63","2.31"
"45.147488256","-7.41","2.86","-1.92"
"45.197819904","-7.45","6.35","-3.18"
"45.332037632","-5.26","7.57","-1.49"
"45.390757888","-7.37","5.33","-1.37"
"45.457866752","-12.71","10.04","-0.82"
"45.524975616000006","-14.36","9.69","-9.18"
"45.617250304","-7.77","9.38","0.90"
"45.701136384","-5.02","5.37","-0.35"
"45.810188288000006","-7.22","4.12","-1.84"
"45.860519936","-7.57","3.65","-0.59"
"45.936017408000005","-7.69","3.84","-1.02"
"46.397390848","-10.04","9.18","0.16"
"46.909095936","-10.94","4.55","-4.16"
"46.909095936","-10.98","8.00","2.35"
"46.917484544000004","-5.84","3.49","-1.10"
"46.934261760000005","-6.63","6.08","-2.55-5.14"
"46.942650368","-7.41","3.77","-1.92"
"46.992982016000006","-6.86","2.79","-0.94"
"47.093645312","-9.30","6.32","-1.61"
"47.152365568","-10.08","5.53","0.82"
"47.22786304","-7.96","5.77","-7.53"
"47.362080768000006","-12.59","9.81","-2.16"
"47.429189632","-4.00","3.73","-0.71"
"47.47952128","-4.24","5.57","-1.45"
"47.555018752","-5.14","6.55","-1.14"
"47.647293440000006","-10.40","7.65","-4.16"
"47.731179520000005","-3.84","9.65","-1.45"
"47.815065600000004","-6.83","3.49","-2.28"
"47.882174464","-12.75","9.77","-2.28"
"47.966060544","-6.35","4.63","-2.35"
"48.049946624","-4.71","3.22","-1.02"
"48.184164352","-7.22","2.94","0.86"
"48.242884608000004","-16.44","13.10","3.77"
"48.309993472","-16.36","9.30","0.67"
"48.377102336","-3.69","2.51","-3.45"
"48.452599808","-12.67","5.26","-3.49"
"48.536485888","-7.49","7.53","-2.71"
"48.628760576000005","-3.57","4.90","-2.12"
"48.687480832000006","-6.59","6.39","-0.31"
"48.771366912000005","-10.63","13.57","-1.92"
"48.846864384","-8.98","14.98","-5.57"
"48.930750464000006","-5.73","4.16","-2.71"
"49.014636544000005","-10.59","6.86","-4.39"
"49.148854272","-8.47","3.37","-2.28"
"49.207574528","-5.22","2.90","-1.10"
"49.283072000000004","-7.96","3.10","0.55"
"49.350180864","-12.87","7.65","2.39"
"49.425678336000004","-20.01","6.12","-6.20"
"49.4927872","-6.24","4.04","0.55"
"49.57667328","-8.55","3.14","-2.79"
"49.677336576","-7.92","7.02","-3.73"
"49.761222656","-4.98","6.67","-1.02"
"49.828331520000006","-6.67","5.53","-1.22"
"49.903828992","-12.55","11.85","-2.08"
"49.996103680000004","-12.67","14.16","-7.77"
"50.105155584","-6.12","6.71","-2.08"
"50.16387584","-8.00","5.92","-2.43"
"50.230984704","-7.88","4.16","-2.86"
"50.331648","-5.92","3.14","-0.98"
"50.390368256","-7.81","3.92","0.00"
"50.474254336","-12.51","5.77","2.67"
"50.558140416","-19.85","7.41","-6.63"
"50.650415104000004","-5.02","3.65","0.08"
"50.725912576000006","-8.94","3.14","-1.53"
"50.793021440000004","-7.30","6.98","-3.02"
"50.87690752","-4.86","6.00","-2.39"
"50.9607936","-8.87","6.16","-0.90"
"51.061456896","-13.69","10.59","-1.80"
"51.12856576","-12.20","11.34","-8.59"
"51.195674624000006","-5.81","6.51","-1.49"
"51.304726528","-7.77","5.96","-2.86"
"51.380224000000005","-7.77","4.31","-3.18"
"51.438944256000006","-7.14","3.65","-1.37"
"51.53960755200001","-8.94","4.47","-0.47"
"51.623493632000006","-10.67","6.28","1.33"
"51.707379712000005","-11.73","5.45","-6.47"
"51.766099968000006","-10.63","8.43","1.14"
"51.849986048000005","-8.28","2.16","-2.43"
"52.38685696","-7.88","6.67","-3.14"
"52.873396224000004","-5.06","7.10","-1.41"
"52.898562048","-7.85","5.26","-1.26"
"52.898562048","-13.18","10.71","-1.57"
"52.90695065600001","-13.14","10.43","-8.98-8.47"
"52.90695065600001","-3.77","3.18","-2.16"
"53.041168384","-10.67","4.82","-3.18"
"53.108277248","-6.86","7.14","-2.98"
"53.175386112000005","-4.59","6.39","-1.37"
"53.217329152000005","-6.47","5.84","-0.55"
"53.301215232000004","-9.92","11.34","-2.39"
"53.39348992","-4.94","10.67","-2.55"
"53.494153216","-7.45","3.53","-3.18"
"53.552873472","-11.77","7.77","-2.63"
"53.636759552","-6.59","5.14","-1.96"
"53.720645632","-6.00","3.30","-1.29"
"53.804531712000006","-7.26","3.14","-0.67"
