NAME:,walk_1_2.csv,,
EXPERIMENT TIME:,07/06/2023 16:15,,
ACTIVITY TYPE:,Walking,,
COUNT OF ACTUAL STEPS:,90,,
 ,,,
Time [sec],ACC X,ACC Y,ACC Z
0.005,0.67,-9.96,-0.63
0.035,0.9,-11.18,-0.31
0.091,0.67,-10.08,-0.9
0.13,0.63,-10.32,-1.26
0.183,0.12,-9.92,-0.71
0.236,0.35,-9.85,-0.2
0.301,1.1,-9.85,-0.35
0.39,1.33,-10.12,-0.63
0.397,-0.39,-9.81,-0.67
0.449,-0.86,-10,-0.71
0.509,-0.9,-10.83,0
0.537,-0.08,-11.06,0.86
0.611,0.78,-13.53,0.67
0.658,0.47,-11.65,1.22
0.711,2.71,-10.36,0.82
0.764,4.04,-12.2,-0.08
0.817,1.73,-9.81,-1.02
0.846,1.96,-8.32,-2.08
0.901,1.69,-7.57,-2.35
1.011,0.16,-6.35,-3.65
1.022,0.55,-6.71,-3.18
1.066,1.26,-9.14,-4.16
1.372,1.84,-10.83,-3.96
1.384,1.49,-11.41,-7.26
1.422,1.26,-9.22,-1.26
1.473,1.88,-9.1,1.29
1.524,0.75,-8.28,0.04
1.57,0.71,-10.04,0.16
1.678,-1.22,-9.38,-0.47
1.708,-1.14,-10.4,-1.02
1.725,-2.51,-10.83,-0.55
1.776,1.88,-14.4,0.86
1.826,5.22,-12.71,2.08
1.893,4.08,-12.79,1.26
1.924,1.96,-10,-1.84
1.993,0.31,-8.16,-2.24
2.026,0.86,-5.92,-2.2
2.073,0.04,-5.06,-3.26
2.125,0.31,-4.51,-3.77
2.183,0.51,-7.88,-3.69
2.233,2.28,-13.77,-3.41
2.288,2.71,-12.79,-8.39
2.364,2.51,-7.18,-4.75
2.391,4.35,-17.22,4.2
2.436,2.79,-8.32,2.24
2.487,-0.31,-6.75,-1.92
2.539,2,-10.87,0.2
2.588,1.29,-7.22,1.49
2.643,0.04,-8.87,-0.24
2.693,0.12,-9.57,0.55
2.756,-1.49,-10.67,-1.14
2.791,-3.14,-10.59,0.35
2.843,-1.14,-13.38,0
3.006,5.26,-14.83,-0.43
3.053,0.08,-8.71,-2.28
3.111,0.82,-6.47,-0.98
3.171,-1.06,-3.84,-3.88
3.2,-0.86,-3.49,-3.84
3.248,1.14,-6.39,-5.37
3.302,6,-19.77,-0.27
3.352,3.14,-7.1,-6.98
3.406,2.9,-15.73,4.35
3.458,3.02,-9.69,0.86
3.51,1.14,-10.2,-1.06
3.614,1.26,-8.24,-0.9
3.626,1.22,-8.04,2.12
3.657,-0.04,-8.47,-0.24
3.72,-0.16,-8.94,0.71
3.769,-2.98,-10.47,-1.84
3.82,-1.1,-11.02,-0.94
3.877,-3.06,-11.38,-0.24
3.927,1.26,-15.38,1.73
3.986,5.53,-11.96,3.18
4.013,5.49,-15.3,-0.08
4.062,3.69,-10.9,-0.86
4.128,0.63,-9.1,-2.04
4.177,0.71,-5.45,-1.8
4.258,-0.2,-5.18,-3.14
4.269,-0.47,-3.61,-3.84
4.326,0.71,-9.38,-4.94
4.376,4.35,-15.85,-3.3
4.46,0.82,-4.9,-8.75
4.491,5.18,-20.01,-0.27
4.518,4.04,-11.69,1.69
4.572,0.08,-9.57,-1.88
4.644,1.41,-8.51,-0.55
4.69,1.92,-10.16,2.39
4.746,-0.86,-8.98,-0.2
4.798,0.55,-8.98,0.67
4.825,-2.04,-8.9,-1.53
4.89,-1.57,-10.83,0.16
4.944,-1.8,-12.4,-0.08
4.992,3.69,-14.28,-0.43
5.044,3.57,-13.14,3.22
5.097,5.14,-13.69,0.27
5.142,2.28,-10.59,-0.59
5.195,0.08,-7.73,-1.73
5.253,1.69,-6.39,-2.47
5.303,0.86,-6.32,-3.26
5.343,0.08,-4.86,-4.47
5.399,0.39,-7.22,-4.82
5.482,2.47,-15.18,-3.3
5.495,2.39,-9.14,-7.81
5.565,5.06,-15.53,-3.69
5.591,3.26,-10.08,0.94
5.653,1.88,-6.24,-0.63
5.731,0.67,-11.65,0.08
5.755,1.73,-10.51,0.78
5.802,0.39,-8.32,0.24
5.853,0.63,-9.3,0.27
5.905,-0.08,-9.57,-0.39
5.959,-1.26,-9.65,-0.82
6.016,-0.55,-10.24,-0.59
6.071,-1.53,-10.2,-0.24
6.135,-0.86,-12.51,-0.43
6.161,2.63,-12.51,0.71
6.212,3.8,-10.98,1.49
6.26,3.96,-12.83,0.67
6.311,2.94,-10.87,-1.1
6.359,1.33,-9.81,-2.04
6.409,1.06,-6.94,-2.51
6.65,0.47,-7.57,-2.39
6.663,1.1,-6.43,-3.1
6.685,0.9,-7.34,-3.69
6.72,1.65,-10.79,-6.12
6.869,3.33,-7.37,0.55
6.927,1.26,-6.47,-0.47
6.977,0.71,-11.77,-0.08
7.036,1.84,-9.53,0.98
7.09,-0.08,-8.75,-0.16
7.135,0.55,-9.06,0
7.191,-0.51,-10.04,-0.08
7.238,-0.67,-10,-0.27
7.275,-0.16,-10.32,-0.08
7.335,-2.31,-9.45,-0.35
7.388,-0.24,-12.71,-0.98
7.47,2.47,-13.34,0.12
7.479,3.14,-10.59,1.92
7.549,4.35,-12.79,0.04
7.601,2.94,-10.9,-0.39
7.658,1.14,-9.06,-2.2
7.707,1.06,-7.37,-3.02
7.731,0.16,-7.41,-2.86
7.79,0.16,-5.88,-3.37
7.846,1.26,-7.69,-3.3
7.896,1.69,-10.79,-3.77
7.949,1.8,-10.43,-4.55
8.002,0.27,-10.55,-6.28
8.06,2.82,-13.18,-4.43
8.124,2.94,-12.16,2.71
8.15,2.75,-8.28,0.75
8.199,2.28,-8.36,-1.1
8.258,0.86,-11.02,0.63
8.294,0.71,-8.75,0.94
8.36,0.47,-10.4,-0.16
8.396,-0.86,-9.34,-0.47
8.456,-1.92,-9.34,-1.14
8.51,-0.78,-10.04,-0.27
8.563,-0.31,-9.89,-0.51
8.616,-1.22,-10.43,-0.31
8.667,1.29,-12.12,0.75
8.715,2.67,-15.46,1.02
8.752,2.31,-8.9,1.41
8.82,6.2,-11.34,-1.33
8.877,0.67,-11.22,-1.1
8.93,0.04,-7.45,-1.14
8.979,1.88,-8.67,-3.02
9.013,0.31,-7.65,-2.94
9.068,-0.47,-5.57,-3.73
9.116,0.67,-7.41,-3.26
9.173,1.06,-10.59,-4.04
9.231,1.37,-10.24,-4.43
9.261,-0.12,-9.85,-7.3
9.352,3.33,-9.38,-5.88
9.378,5.1,-17.61,4.86
9.42,2.28,-6.12,1.1
9.474,1.57,-5.81,-1.53
9.531,2.24,-13.02,2.39
9.577,0.16,-9.61,0.39
9.637,1.33,-8.79,0.04
9.688,-0.47,-8.98,-0.16
9.74,-1.77,-10.67,-0.43
9.775,-0.78,-10.24,-0.55
9.827,-0.43,-10,-0.98
9.879,-2.04,-10.63,-0.98
9.976,-0.27,-11.81,0.82
9.984,3.22,-13.02,-0.2
10.044,2.86,-10.32,2.35
10.099,4.39,-13.02,-0.47
10.151,2.39,-11.14,-0.75
10.2,0.94,-8.98,-1.96
10.233,1.1,-7.41,-2.51
10.29,0.98,-6.86,-1.96
10.342,0.51,-5.69,-3.3
10.404,0.71,-6.67,-3.18
10.449,1.73,-9.61,-3.77
10.505,1.49,-11.73,-3.61
10.621,0.24,-13.1,-7.65
10.632,0.63,-7.85,-6.24
10.649,5.65,-16.95,2
10.698,3.33,-8.67,2.24
10.744,0.55,-5.81,-0.51
10.804,1.77,-11.45,0.59
10.849,1.53,-9.06,0.98
10.902,-0.04,-9.26,-0.24
10.955,0.47,-9.34,0.04
11.009,-1.22,-9.73,-0.51
11.055,-0.35,-9.69,0.24
11.112,0.12,-9.92,-0.04
11.163,-0.67,-10.04,0.51
11.215,-0.63,-12.04,-0.35
11.304,0.47,-12.4,0
11.315,3.3,-15.1,2.9
11.36,2.35,-9.06,0.16
11.41,6.39,-12.67,0.12
11.464,0.27,-9.34,-1.69
11.513,0.12,-8.28,-1.57
11.566,1.29,-8.24,-2.59
11.62,0.39,-6.9,-3.06
11.663,0.12,-5.57,-3.53
11.938,0.82,-8.16,-3.73
11.977,0.2,-7.69,-6.9
12.034,1.26,-5.26,-0.27
12.085,0.63,-8.47,-0.47
12.139,3.1,-11.41,1.92
12.169,0.24,-9.81,0.43
12.224,0.94,-8.98,0.39
12.277,-0.63,-9.57,-0.43
12.328,-1.92,-9.38,-0.16
12.388,-0.31,-10.36,-0.31
12.439,0.51,-10.24,-0.67
12.492,-2.12,-10.43,-1.45
12.578,0.04,-12.04,0.94
12.589,1.69,-14.55,2.2
12.634,2.9,-9.57,1.96
12.683,5.88,-11.38,-0.63
12.74,2.24,-11.18,-0.08
12.793,-0.31,-8.83,-2.28
12.844,1.41,-7.37,-1.77
12.904,1.53,-7.61,-2.55
12.957,0.86,-5.53,-3.69
13.006,0.94,-6.55,-2.94
13.039,1.18,-10.16,-4
13.097,1.06,-10.9,-4.47
13.158,1.14,-12,-7.92
13.228,1.33,-8.67,-6.16
13.248,5.22,-20.01,0.9
13.296,3.77,-10.24,1.33
13.347,1.22,-5.18,0.59
13.411,0.75,-8.16,-0.63
13.467,3.06,-11.1,2.59
13.495,-0.75,-9.18,0.24
13.551,1.61,-9.06,0.27
13.6,-0.63,-9.73,-0.35
13.66,-0.75,-9.3,-0.35
13.711,-0.31,-10.43,-0.16
13.767,-0.27,-10.24,-0.27
13.909,3.22,-14.4,1.8
13.966,3.57,-9.65,0.71
14.016,5.57,-12.67,-0.16
14.067,0.82,-9.89,-0.78
14.124,1.06,-7.22,-1.37
14.175,1.29,-8.59,-2.75
14.224,0.78,-7.57,-2.59
14.274,0.2,-5.77,-3.84
14.331,0.75,-6.79,-2.67
14.384,2.08,-9.96,-3.53
14.416,1.8,-12.83,-4.75
14.579,6.32,-14.47,4.63
14.618,1.77,-8.16,-0.47
14.696,1.96,-8.79,-0.82
14.73,2.47,-11.96,2.08
14.773,0.35,-9.06,-0.24
14.835,1.02,-8.9,0.24
14.886,-0.47,-9.73,0.27
14.939,-1.69,-10.24,-0.51
14.995,-0.98,-9.57,-0.67
15.066,-0.55,-10.04,-0.9
15.099,-1.84,-11.34,0.31
15.129,0.12,-11.89,-0.31
15.189,2.2,-13.02,-0.08
15.237,2.71,-12.12,3.69
15.289,4.82,-11.45,-0.04
15.344,3.57,-11.65,-0.04
15.396,-0.43,-8.55,-2.39
15.447,1.45,-6.94,-2.35
15.51,0.98,-7.57,-2.31
15.534,0.78,-5.96,-3.41
15.589,0.98,-6.16,-3.8
15.646,0.67,-10.04,-3.73
15.71,1.37,-11.45,-4.24
15.763,0.94,-10.79,-7.41
15.792,1.61,-10.2,-5.37
15.86,5.02,-13.77,1.73
15.91,2.12,-6.24,1.49
15.973,1.14,-6.2,0.51
15.994,2.67,-12.91,0.47
16.056,1.18,-9.02,0.16
16.115,0.67,-9.1,0.27
16.166,1.06,-9.69,0.04
16.216,-0.63,-9.49,-0.24
16.252,-0.47,-9.45,-0.08
16.36,-0.55,-10,-0.47
16.373,-0.75,-10.51,0.47
16.419,-2.28,-11.06,-0.55
16.469,1.88,-12.63,-0.04
16.518,3.26,-13.85,3.73
16.573,3.02,-8.87,-0.04
16.619,5.69,-12.59,-0.67
16.679,0.9,-10.12,-1.1
16.733,0.31,-8.59,-2.24
16.78,1.1,-8.71,-2.9
16.832,0.9,-6.24,-3.1
16.863,0.63,-4.82,-3.1
16.916,0.71,-8,-3.49
17.202,0.71,-11.34,-4.35
17.22,1.02,-10.28,-6.2
17.225,1.1,-9.45,-6.24
17.268,1.37,-11.06,0.16
17.344,1.57,-10.63,0.98
17.382,0.2,-8.55,-0.08
17.425,0.9,-9.85,0.04
17.485,-0.24,-9.18,-0.31
17.536,-1.18,-8.71,-0.71
17.588,-0.51,-10.55,-0.51
17.738,-1.84,-11.26,-0.63
17.781,0.16,-12.94,0.2
17.84,3.65,-11.77,2.47
17.893,2.9,-11.85,0.63
17.945,5.57,-13.42,-0.27
18.001,0.86,-10.47,-3.33
18.049,-0.27,-7.92,-1.26
18.094,1.02,-8.08,-2.86
18.148,0.67,-6.35,-2.59
18.203,0.98,-5.92,-2.9
18.364,1.37,-10.71,-4.12
18.413,1.37,-11.53,-7.61
18.456,3.14,-13.18,-6.51
18.499,6.79,-12.08,3.02
18.544,2.43,-6.08,0.67
18.601,0.51,-6.59,-0.04
18.668,1.69,-13.38,0.98
18.712,0.51,-7.61,-0.08
18.768,1.1,-9.57,0.75
18.825,0.82,-9.57,0
18.87,-0.9,-9.61,-0.59
18.912,-0.98,-10,-0.31
18.956,0.24,-9.81,-1.1
19.027,-1.96,-9.61,-0.2
19.073,-1.18,-11.96,0.16
19.127,2.59,-13.1,-1.29
19.176,2.98,-12.87,2.98
19.21,4.55,-12.2,-0.63
19.259,3.65,-11.96,-0.47
19.311,0.35,-8.63,-1.49
19.365,1.29,-7.14,-2.39
19.415,1.22,-7.34,-2.55
19.467,0.47,-5.41,-3.77
19.539,0.55,-5.61,-4.12
19.568,0.39,-10.04,-3.8
19.643,0.67,-13.14,-4.31
19.674,2,-8.47,-7.73
19.742,3.69,-18.95,-1.41
19.783,4.47,-7.14,-1.14
19.818,0.98,-8.2,-1.22
19.89,1.26,-12,1.06
19.938,2.43,-9.02,0.24
19.98,0.35,-8.59,0.04
20.045,0.9,-9.73,0.16
20.094,0.43,-9.3,-0.24
20.13,-1.69,-9.65,-0.59
20.185,-1.26,-10.2,-0.31
20.287,-0.75,-9.53,-1.29
20.299,-2,-10.08,-0.39
20.342,-0.35,-11.69,0.2
20.389,2.59,-14,0.08
20.442,2.43,-12.43,3.18
20.494,5.84,-12,-0.27
20.55,3.37,-11.1,0
20.604,0.82,-8.16,-1.29
20.65,2.04,-7.18,-2.28
20.704,1.45,-7.37,-2.67
20.763,0.27,-5.84,-3.57
20.903,0.82,-11.34,-3.88
20.944,1.33,-12.4,-8.59
21.003,2.86,-9.26,-5.02
21.062,4.63,-9.81,2.75
21.09,2.35,-4.98,-0.27
21.162,0.16,-10.32,-0.71
21.211,2.39,-12.47,1.02
21.263,1.18,-9.57,0.16
21.315,0.71,-8.24,-0.39
21.368,-0.39,-10.04,-0.82
21.492,-2.08,-9.02,-1.18
21.506,-1.65,-10.04,-1.02
21.529,-0.24,-10,-0.9
21.549,-2.75,-10.51,-0.39
21.628,2.2,-13.73,0.59
21.663,4.94,-12.51,1.88
21.72,3.69,-13.26,-0.35
21.776,3.22,-11.92,-1.49
21.826,0.78,-10.16,-2.31
21.876,0.78,-7.34,-0.82
21.931,1.1,-6.67,-2.9
21.963,1.18,-5.81,-3.02
22.015,0.55,-5.69,-3.88
22.065,0.67,-8.47,-3.8
22.216,3.88,-10.51,-6.08
22.489,4.51,-11.89,3.53
22.5,1.41,-7.37,-0.27
22.521,-0.12,-9.41,0.16
22.585,0.04,-8.98,0.12
22.633,-1.41,-9.1,-0.31
22.69,-0.78,-9.41,-0.51
22.837,-0.24,-12.04,0.55
22.889,4.28,-12.67,1.77
22.945,3.84,-11.77,1.26
23.005,5.61,-14.91,1.18
23.056,1.29,-10.47,-2.98
23.081,1.69,-8,-1.14
23.139,1.77,-6.67,-2.2
23.191,0.47,-6.24,-1.65
23.242,0.2,-5.14,-3.61
23.298,-0.08,-7.02,-4.67
23.351,0.51,-12.71,-2.82
23.408,2.67,-14.12,-7.02
23.471,2.47,-10.94,-6.83
23.502,2.2,-13.14,1.69
23.544,2.51,-3.92,-0.47
23.599,0.31,-10.32,-0.16
23.651,2,-11.18,-0.27
23.703,1.8,-8.43,-0.35
23.754,-0.59,-9.02,-0.24
23.813,0.55,-9.41,0.04
23.85,-0.08,-8.75,-0.2
23.911,-0.59,-9.22,-0.39
23.961,-0.2,-10.51,-0.55
24.122,4.59,-14.08,2.2
24.174,2.98,-11.85,1.73
24.205,5.61,-14.36,0.94
24.281,0.63,-10.43,-3.14
24.327,1.45,-8.32,-0.71
24.38,1.37,-6.47,-3.02
24.433,0.16,-5.06,-2.75
24.483,0.24,-3.88,-3.69
24.516,0.71,-9.89,-4.59
24.575,1.49,-13.3,-3.3
24.74,5.22,-14.16,2.79
24.787,1.84,-6.32,-0.63
24.839,1.14,-8.47,-1.14
24.886,2,-12.12,0.75
24.942,0.12,-8.63,0.47
24.973,0.04,-8.94,-0.16
25.029,0,-9.22,0.16
25.077,-1.73,-8.12,-1.02
25.132,-0.2,-9.53,-0.67
25.188,-1.1,-10.43,-0.47
25.24,-2.16,-9.92,-2.16
25.384,6,-16.75,2.51
25.443,4.04,-12.79,0.24
25.493,0.04,-9.89,-3.77
25.546,1.18,-8.98,-2
25.597,-0.9,-5.57,-3.14
25.651,0.59,-4.12,-2.16
25.701,0.75,-5.18,-4.79
25.756,0.27,-10.51,-4.24
25.808,1.84,-11.92,-4.12
25.858,0.35,-10.08,-7.45
25.89,4.24,-14.28,-5.49
25.972,5.92,-10.4,2.67
26.002,1.84,-4.71,-1.22
26.051,-0.82,-12.2,-0.51
26.113,2.24,-10.59,-0.55
26.16,0.35,-7.73,-0.9
26.21,0.16,-9.38,-0.2
26.273,0.9,-8.79,-0.24
26.301,-1.41,-9.22,0.04
26.347,-0.63,-10.08,-0.9
26.402,-1.1,-10.43,-0.9
26.454,-2.47,-10.28,-0.47
26.517,2.82,-13.93,0.39
26.654,5.57,-12.55,-0.24
26.712,-0.31,-10.28,-1.96
26.766,1.29,-6.47,-1.49
26.815,1.8,-6.83,-2.79
26.872,0.63,-4.24,-3.69
26.922,0.55,-5.22,-3.65
26.979,1.14,-11.22,-4.24
27.036,2,-12.04,-4.24
27.084,0.78,-10.28,-9.1
27.117,4.28,-18.59,-3.02
27.172,4.39,-8.43,0.78
27.297,1.14,-7.81,-0.51
27.308,1.73,-11.1,-0.51
27.329,2,-10,0.82
27.377,-0.12,-8.08,0.24
27.433,0.86,-9.38,0.08
27.488,-0.9,-9.02,-0.39
27.771,-1.73,-9.69,-0.67
27.782,-0.55,-9.61,-1.22
27.798,-2.67,-10.32,-0.39
27.805,-0.55,-11.73,0.51
27.841,5.96,-13.45,0.55
27.907,2.08,-11.69,-2.86
27.929,0.9,-8.36,-0.67
27.984,1.92,-6.28,-3.02
28.036,0.47,-5.3,-2.31
28.09,0.24,-4.47,-3.06
28.15,1.33,-7.53,-4
28.188,2,-11.14,-4.59
28.24,0.94,-11.34,-6.43
28.296,0.35,-7.49,-6.55
28.349,6.94,-20.01,-4
28.399,3.45,-9.57,2.86
28.554,2.59,-10.51,1.8
28.606,-1.06,-8.98,0.04
28.656,0.47,-8.9,-0.51
28.71,-1.18,-8.94,-0.59
28.771,-0.9,-9.96,0.04
28.802,-0.2,-9.26,-1.02
28.851,-1.57,-9.53,-0.47
28.908,-1.65,-9.57,-0.08
28.962,2.94,-14.32,1.73
29.016,3.41,-14.55,4.43
29.069,5.88,-13.65,0.43
29.107,4.79,-11.53,-0.63
29.202,0.16,-9.34,-1.77
29.212,0.78,-7.34,-2.28
29.277,1.41,-6.24,-2.67
29.327,1.06,-5.22,-3.77
29.356,0.24,-5.88,-4.35
29.41,0.55,-8.67,-4.04
29.464,2.43,-10.43,-3.77
29.518,1.26,-10.12,-7.14
29.574,4.9,-11.81,-5.14
29.621,6,-10.04,1.57
29.676,0.63,-9.1,-0.78
29.728,0.82,-10.12,-0.51
29.783,2.31,-10.28,0.08
29.854,-0.71,-8.9,0.08
29.879,-0.2,-9.14,-0.47
29.934,-0.35,-8.36,-0.78
29.991,-0.9,-9.45,-0.51
30.05,0.31,-10.08,-0.04
30.08,-2.31,-9.57,-0.12
30.123,4.2,-14.16,-0.12
30.173,3.77,-14.08,1.33
30.237,5.02,-13.06,-1.1
30.29,2.43,-10.67,-2.35
30.344,0.82,-8.08,-1.49
30.395,0.86,-6.28,-2.67
30.536,0.35,-7.88,-4.55
30.59,0.78,-8.75,-4.59
30.636,1.65,-10.32,-4.43
30.688,0.35,-10.2,-7.02
30.744,4.16,-13.1,-6.12
30.799,3.57,-10.16,1.73
30.852,1.96,-6.83,-0.16
30.909,0.27,-11.3,-0.35
30.936,2.04,-9.81,-0.04
31.014,-0.12,-8.16,-0.35
31.049,-0.04,-9.34,-0.39
31.155,0.67,-8.9,-0.35
31.169,-1.49,-9.81,-0.59
31.209,-1.29,-9.53,-1.26
31.26,-1.14,-10.67,-0.71
31.338,-1.33,-10.4,-0.31
31.349,3.49,-14.79,2.16
31.414,3.3,-13.22,1.84
31.456,5.33,-13.02,-0.55
31.512,2.2,-10.08,-2.71
31.563,0.67,-7.81,-0.55
31.614,1.26,-5.65,-3.18
31.667,0.51,-5.37,-2.94
31.72,-0.43,-4.94,-3.3
31.783,0.78,-9.49,-4.86
31.813,2.47,-11.89,-4.12
31.859,1.84,-9.73,-6.86
31.915,5.06,-10.87,-6.43
31.971,4.94,-13.14,3.8
32.021,1.02,-7.65,-1.49
32.07,0.94,-10.55,-1.26
32.131,1.73,-11.53,0.98
32.183,-0.86,-8.2,-0.51
32.234,-0.04,-8.47,-0.31
32.264,0.43,-8.98,-0.04
32.362,-0.94,-9.65,-0.75
32.375,-0.67,-9.69,-1.14
32.423,-1.33,-10.28,-1.29
32.468,-2.82,-10.12,-0.51
32.526,2,-13.53,0.75
32.586,2.55,-15.26,4.31
32.623,5.69,-11.41,0.08
32.68,4.31,-11.26,-0.31
32.742,-0.24,-10.04,-1.22
32.788,1.96,-6.75,-1.84
33.047,2.2,-6.83,-2.59
33.056,0.31,-4.9,-2.98
33.084,0.08,-4.79,-3.92
33.144,2.82,-8.04,-5.69
33.195,3.49,-15.46,5.77
33.245,1.33,-6.35,-0.43
33.304,1.73,-7.85,-1.92
33.359,2.31,-12.71,1.88
33.388,-0.35,-8.67,0.04
33.454,0.71,-8.43,-0.47
33.508,0.75,-8.87,-0.16
33.558,-1.8,-8.9,-1.06
33.615,-0.78,-9.65,-0.82
33.663,-2.59,-10.16,-0.63
33.729,-1.02,-11.77,-1.22
33.754,3.61,-14.95,0.98
33.798,2.79,-11.77,3.33
33.856,4.86,-15.06,-0.12
33.913,2.9,-11.73,-1.1
33.961,0.39,-8.83,-2.16
34.011,0,-10.9,-1.33
34.064,1.88,-5.73,-2.71
34.118,0.71,-3.49,-3.02
34.172,0.71,-6.12,-4.16
34.208,-0.08,-14.32,-4.16
34.272,1.18,-10.98,-5.73
34.383,2.59,-8.08,-6.9
34.393,4.55,-20.01,2.12
34.414,2.39,-5.69,0.63
34.472,0.16,-9.14,-0.47
34.522,1.8,-12.2,0.43
34.568,1.45,-9.3,0.47
34.625,-0.12,-8.59,0
34.676,0.43,-9.3,-0.12
34.73,-0.71,-8.67,-0.2
34.778,-1.37,-9.22,-0.55
34.839,-0.43,-9.96,-0.55
34.887,-1.41,-10.47,0.24
34.917,-1.06,-11.96,-0.16
35.002,3.41,-14.24,0.31
35.034,3.33,-11.14,2.98
35.076,5.1,-14.44,0.43
35.131,3.37,-12.4,-1.26
35.196,-0.63,-8.98,-1.69
35.221,0.71,-5.92,-2.12
35.279,1.06,-6.24,-3.1
35.327,0.35,-4.86,-3.1
35.39,1.06,-6.47,-4
35.43,1.26,-10.87,-4.16
35.584,5.02,-14.87,-3.06
35.643,5.84,-14.2,4.08
35.693,-0.04,-7.73,-1.49
35.731,0.47,-8.79,-1.37
35.806,2.24,-12.4,2.24
35.859,0.86,-7.49,-0.31
35.888,1.26,-8.98,0.2
35.943,-0.59,-9.45,0
35.996,-2.16,-9.1,-0.2
36.052,-0.78,-10.2,-0.75
36.107,-2.55,-9.49,-0.31
36.156,0.12,-10.71,-0.12
36.266,2.59,-13.42,2.12
36.279,4.16,-11.3,0.39
36.308,4.98,-17.5,0.16
36.363,2.2,-10.08,-2.75
36.414,2.04,-9.77,-1.53
36.448,2.31,-7.26,-2.43
36.511,0.78,-5.02,-1.92
36.562,-0.27,-3.73,-3.02
36.616,0.31,-7.92,-4.47
36.671,0.78,-12.12,-3.22
36.704,1.8,-12.24,-6.2
36.757,3.3,-9.69,-6.04
36.811,3.57,-15.34,2.71
36.891,2.94,-5.26,-0.98
36.914,-2.12,-12.59,-0.9
36.966,2,-10.67,-0.24
37.019,1.73,-7.53,-0.2
37.075,-0.08,-9.96,-0.16
37.111,0.59,-9.69,-0.16
37.161,-1.02,-8.32,-0.47
37.218,-0.55,-8.2,0.04
37.275,-0.08,-11.41,-0.27
37.33,-1.65,-10.67,-0.59
37.382,-2.04,-11.06,-1.45
37.435,-1.57,-11.77,-0.27
37.484,3.22,-13.81,1.96
37.572,2.82,-11.77,2.35
37.585,6.63,-12.47,-0.27
37.627,1.61,-11.26,-2.71
37.68,0.47,-8.04,-0.27
37.729,1.88,-6.9,-2.67
37.782,0.94,-6.75,-2.2
37.838,0.43,-5.02,-3.65
37.888,1.02,-8.63,-4.43
37.935,1.06,-10.94,-5.26
37.987,0.71,-9.14,-4.51
38.029,0.55,-10.83,-6
38.811,2.55,-3.61,0.39
39.341,0.67,-9.96,-3.18
39.367,0.16,-8.32,-7.49
39.417,6.75,-14.47,-4.2
39.48,5.65,-10.79,3.02
39.509,0.47,-8.16,-0.04
39.561,0.16,-10.63,0.04
39.61,2.59,-9.26,1.8
39.672,0.27,-8.47,0.2
39.73,1.29,-7.85,0.12
39.782,0.2,-8.32,0.51
39.837,-1.22,-9.22,-0.08
39.871,0.51,-10.94,-0.59
39.919,-1.92,-10.2,-0.12
39.978,-1.77,-11.85,-1.26
40.07,-2.08,-13.96,0.9
40.08,6.32,-11.61,-0.27
40.128,3.18,-10.2,1.22
40.18,4.08,-14,-1.29
40.232,1.02,-10.67,-1.14
40.291,1.69,-7.14,-1.33
40.342,1.18,-5.88,-2.35
40.396,1.06,-5.3,-2.55
40.426,0.47,-5.65,-3.84
40.478,0.47,-9.06,-3.92
40.529,0.86,-10.04,-4.39
40.589,1.65,-11.61,-5.61
40.673,-0.55,-9.3,-7.85
40.696,4.16,-11.45,-7.18
40.743,3.69,-9.22,2.16
40.797,0.9,-6.79,-2.24
40.852,-0.2,-12.59,0.47
40.903,3.73,-10.67,0.55
40.955,-0.08,-7.1,-1.1
40.984,0,-9.81,0.27
41.046,1.18,-9.06,0.47
41.101,-0.35,-8.87,-0.39
41.149,0.08,-10,-0.24
41.202,-0.51,-9.41,-1.41
41.254,-3.33,-10.51,-0.31
41.32,-2.63,-12.79,1.1
41.344,4.94,-14.16,-0.12
41.415,2.35,-10.83,2.63
41.464,7.3,-14.47,0.59
41.517,4.28,-11.14,1.26
41.578,0.16,-9.02,-1.61
41.605,1.02,-7.49,-1.33
41.66,1.37,-6,-2.47
41.711,0.35,-4.75,-3.37
41.765,0,-6.28,-3.41
41.82,1.02,-9.34,-4.28
41.87,1.14,-11.3,-5.06
41.924,1.61,-12.08,-7.49
41.984,0.04,-7.1,-8.32
42.051,7.3,-20.01,0.82
42.062,2.59,-7.26,-0.08
42.113,0.2,-8.67,-0.55
42.163,1.18,-11.38,0.08
42.211,2.59,-8.83,1.26
42.27,0.82,-8.47,0.51
42.315,0.98,-8.98,1.14
42.382,-1.37,-9.53,0.27
42.411,-1.45,-8.83,-0.39
42.464,0.08,-11.06,-0.16
42.523,-1.29,-10.28,-1.02
42.617,-1.53,-10.83,-0.08
42.629,-0.27,-14,0.94
42.669,2.39,-12.98,3.3
42.721,4.31,-11.69,2.71
42.777,6.12,-13.22,0.16
42.853,0.86,-8.87,-0.98
42.88,0.51,-7.26,-1.33
42.94,0.31,-9.77,-2.39
42.992,0.86,-6.08,-2.55
43.045,1.06,-5.61,-4.63
43.095,-0.63,-9.34,-5.49
43.149,0.98,-12.28,-4.24
43.24,0.86,-9.69,-7.53
43.253,0.67,-4.39,-7.06
43.298,4.59,-20.01,4.28
43.328,2.63,-8.16,1.37
43.388,0.31,-9.14,-1.22
43.439,1.29,-10.24,-0.24
43.496,2.55,-9.73,1.37
43.556,-1.06,-8.94,-0.31
43.602,0.47,-8.39,0.24
43.638,-0.35,-8.51,-0.35
43.707,-0.9,-10.24,-0.59
43.76,0.12,-9.61,-1.53
43.792,-4.04,-10.36,-0.82
43.965,2.55,-11.1,1.96
44.01,6.51,-14.63,0.04
44.056,1.84,-11.34,-0.94
44.131,0.71,-8,-1.45
44.161,1.69,-6.71,-1.53
44.205,0.82,-5.81,-2.79
44.254,0.24,-4.59,-3.14
44.31,0.63,-7.92,-4.2
44.568,1.37,-12.59,-4.82
44.579,0.16,-10.24,-6.94
44.604,-0.67,-6.51,-7.85
44.623,6.35,-20.01,0.94
44.681,2.28,-12.55,2.16
44.735,2.04,-8.9,-0.39
44.764,-0.31,-8.51,-0.12
44.819,1.29,-9.53,0.27
44.874,0.16,-8.51,-0.43
44.921,-0.55,-9.3,-0.31
44.99,-0.27,-10.24,-0.71
45.026,-3.49,-9.85,-0.59
45.068,-2.75,-11.53,-0.75
45.142,1.22,-13.65,-0.59
45.177,4.28,-13.14,3.49
45.234,4.67,-14.2,1.37
45.288,5.41,-9.57,-0.55
45.337,-0.08,-8.59,-2.2
45.411,0.71,-5.69,-1.96
45.43,0.94,-6,-3.1
45.486,0.08,-4.94,-2.71
45.538,-1.14,-7.37,-4.47
45.59,0.78,-10.83,-3.92
45.642,2,-11.53,-5.96
45.694,2.82,-10.12,-8.08
45.743,3.06,-19.69,4.31
45.855,3.88,-3.61,-3.41
45.865,-4.59,-14.2,-0.43
45.885,3.37,-10.71,-0.55
45.94,0.78,-7.22,-1.02
46.005,-0.24,-8.94,0.24
46.034,0.59,-8.55,-0.12
46.09,0,-9.73,-0.63
46.144,-0.24,-9.06,-0.47
46.203,-0.63,-9.57,-0.47
46.262,-3.69,-9.85,-0.78
46.31,0.12,-12.2,1.57
46.343,3.53,-14.16,3.88
46.453,3.37,-10.98,1.92
46.462,7.81,-13.85,0.82
46.514,0.78,-10.08,-2.9
46.562,0.71,-7.73,-0.55
46.614,1.69,-7.69,-2.31
46.645,0.59,-6.12,-2.9
46.719,-1.06,-4.63,-4.08
46.77,-0.35,-6.67,-3.33
46.816,1.73,-13.06,-4.31
46.865,4.47,-12.59,-4.63
46.919,1.22,-6.94,-8.87
46.95,4.98,-20.01,3.26
47.009,1.84,-5.22,-1.06
47.119,0.16,-10.55,-0.08
47.132,3.37,-11.53,0.08
47.166,1.84,-7.57,0.51
47.216,-0.2,-9.34,0.31
47.268,0.9,-8.83,0.35
47.32,-1.73,-7.49,-0.39
47.37,-1.45,-10.36,-0.31
47.427,0.16,-10.12,-1.06
47.481,-3.73,-10.67,-1.8
47.538,-0.71,-12.04,0.94
47.567,6.71,-15.14,2
47.621,3.3,-10.04,1.65
47.671,7.61,-14.91,0.43
47.733,0.43,-10.16,-2.63
47.813,0.78,-7.02,-0.51
47.824,1.65,-6.39,-2.35
47.878,0.27,-5.33,-2.79
47.934,-0.27,-4.55,-3.77
47.994,0.35,-8.16,-4.31
48.023,2.04,-13.85,-3.45
48.081,2,-10.24,-7.45
48.131,3.49,-4.9,-7.73
48.183,4.63,-18.75,4.9
48.237,2.79,-5.61,-0.2
48.287,0.86,-7.34,-0.04
48.36,4.2,-12.12,0.94
48.392,0.35,-8.79,0.94
48.441,0.12,-8.87,0.43
48.499,-0.12,-8.47,-0.75
48.534,-1.77,-8.9,-1.29
48.604,-1.14,-10,-1.57
48.656,-0.51,-10.51,-1.14
48.701,-2.63,-10.32,-1.26
48.757,1.1,-12.51,1.37
48.793,4.16,-12.28,3.02
48.851,5.22,-15.3,1.84
48.903,5.26,-11.22,0.08
48.959,-0.24,-8.43,-1.02
49.017,1.84,-6.51,-0.98
49.091,1.26,-5.96,-3.02
49.1,-0.55,-4.55,-2.94
49.151,-0.24,-6.59,-4.24
49.218,0.51,-12.79,-3.06
49.246,2.55,-11.77,-5.88
49.319,3.14,-5.96,-7.77
49.374,3.06,-15.3,3.77
49.425,4.75,-7.69,-0.82
49.474,-0.94,-10.59,-0.31
49.524,1.41,-9.61,-1.33
49.576,1.14,-8.2,0.2
49.854,-0.63,-9.3,-0.16
49.862,0.75,-8.36,-0.27
49.911,0.94,-11.81,0.43
50.006,3.14,-15.42,3.84
50.012,3.26,-12.16,2.04
50.067,7.41,-12.59,0.71
50.128,0.55,-10.32,-2.43
50.19,1.37,-7.3,-0.67
50.247,2.28,-6.86,-3.37
50.272,0.39,-6,-2.39
50.375,0.27,-5.53,-3.92
50.383,1.22,-7.18,-3.26
50.428,1.57,-9.14,-4.04
50.489,1.49,-11.38,-4.59
50.557,2,-8.98,-8.39
50.586,7.06,-20.01,1.84
50.63,2.35,-6.12,0.04
50.689,0.24,-10.71,-1.29
50.744,2,-10.98,0.24
50.791,1.84,-7.37,0.51
50.85,-0.08,-8.39,0.2
50.881,0.51,-9.02,0
51.016,-0.86,-8.9,-0.31
51.025,-1.02,-10.28,-0.47
51.045,-1.14,-9.38,-1.69
51.09,-2.94,-9.73,-0.43
51.157,0.75,-12.12,1.41
51.186,5.3,-13.93,0.55
51.238,2.67,-11.61,2.24
51.29,7.1,-13.77,-0.08
51.343,2.86,-11.65,-0.9
51.397,-0.67,-7.88,-1.53
51.454,1.06,-5.88,-2.39
51.508,1.02,-6.2,-3.14
51.617,-0.04,-4.71,-4.04
51.627,0.12,-6.12,-4.79
51.649,1.92,-11.92,-3.14
51.699,2.63,-12.04,-8.51
51.747,6.98,-13.02,-4.39
51.81,2.63,-9.26,0.86
51.859,0.9,-7.34,-2.39
51.916,2.51,-12,0.16
51.964,3.33,-9.02,0.47
52.011,0.35,-8,0.9
52.067,0.78,-9.18,0.24
52.117,0.98,-8.36,0.47
52.212,-0.63,-9.38,-0.35
52.221,-1.37,-10.67,-0.47
52.268,-2.51,-9.41,-0.94
52.318,-1.57,-12,-0.27
52.373,2.82,-12.91,0.82
52.43,3.41,-12.51,4.94
52.479,4,-12.32,-0.35
52.529,6.86,-15.3,-2.35
52.558,1.49,-10.71,-1.8
52.632,1.53,-7.69,-0.75
52.667,2.39,-6.59,-2.94
52.722,0,-4.75,-3.45
52.775,-1.06,-4.28,-3.92
52.827,0.31,-12.16,-5.02
52.933,3.77,-11.41,-4.82
52.942,3.8,-7.37,-8.98
52.991,2.94,-15.26,1.65
53.037,2.39,-5.77,-0.55
53.09,0.08,-13.02,0.78
53.124,2.24,-8.98,-1.29
53.178,1.88,-7.65,0
53.228,-0.43,-9.41,0.24
53.302,0.43,-8.87,-0.04
53.326,-0.12,-8.71,-0.71
53.401,-0.78,-10.08,-0.67
53.433,-1.26,-9.73,-1.06
53.492,-3.1,-10.87,-0.75
53.571,1.45,-12.83,0.98
53.6,4.67,-14.51,4.47
53.647,3.61,-10.51,0.16
53.701,6.24,-13.65,0.35
53.736,-0.67,-10.55,-2.94
53.81,1.53,-6.79,-0.98
53.863,2.39,-6.55,-3.53
53.893,-0.08,-5.3,-3.26
53.945,-0.39,-4.59,-4.04
53.999,0.75,-9.96,-4.47
54.091,3.88,-13.81,-3.02
54.101,1.29,-7.65,-9.3
54.146,2.79,-6.67,-5.92
54.204,7.02,-16,4.98
54.263,1.57,-5.73,-0.12
54.31,1.29,-7.69,-0.86
54.373,3.02,-12.51,0.63
54.398,0.35,-8.28,-0.31
54.449,-0.63,-8.67,-0.24
54.505,1.22,-9.49,0
54.576,-1.26,-9.06,-0.82
54.622,-0.67,-9.73,-0.51
54.654,0.16,-9.92,-1.29
54.707,-2.75,-10.16,-1.1
54.755,1.88,-12.98,1.73
54.854,4.98,-12.51,2.71
54.866,5.14,-14.59,0.9
55.132,4.47,-11.38,-1.37
55.165,0.82,-4.9,-3.33
55.22,1.57,-10.4,-4.2
55.266,1.33,-11.89,-4.43
55.332,2.28,-8.94,-8.04
55.377,2.08,-8.43,-6.86
55.43,4.67,-16.04,1.77
55.51,2.28,-7.18,0.98
55.527,1.37,-8.75,0.43
55.576,2.82,-10.67,-0.98
55.652,1.53,-8.71,0.78
55.674,-0.82,-8.71,0.16
55.728,1.41,-8.83,-0.2
55.787,0.24,-8.63,-0.35
55.84,-0.08,-9.69,-0.08
55.89,-0.71,-9.96,-0.98
55.948,-2.82,-10.4,-0.78
56.001,1.92,-13.3,1.26
56.065,4.71,-14.71,4.04
56.092,4.04,-9.89,0.04
56.14,6.28,-12.55,1.18
56.188,0.31,-11.38,-3.02
56.25,1.96,-8.36,-0.98
56.3,1.45,-8.55,-2.71
56.336,0.86,-6,-3.06
56.397,0.47,-5.61,-3.26
56.454,0.51,-7.37,-3.06
56.504,0.86,-9.57,-4.59
56.548,1.37,-10.55,-4.75
56.602,0.63,-8.87,-6.71
56.655,4.75,-9.26,-5.84
56.738,6.35,-12.47,5.02
56.764,2.71,-6.43,0.27
56.815,1.92,-10,-0.75
56.866,2.98,-10.28,0.04
56.933,0.12,-7.65,0.12
56.964,0.75,-9.96,0.31
57.004,0.86,-9.53,-0.04
57.062,-1.29,-9.85,-0.31
57.11,-0.63,-9.65,-0.31
57.166,-0.24,-9.49,-1.49
57.216,-0.9,-10.16,-0.75
57.263,-0.67,-10.24,-0.2
57.336,2.08,-13.42,1.49
57.358,4.35,-12.67,2.28
57.413,6.55,-15.42,1.14
57.469,2.79,-10.63,-1.84
57.519,1.77,-8.83,-1.06
57.568,0.9,-7.57,-1.8
57.624,0.94,-5.41,-2.04
57.68,0.78,-4.59,-3.37
57.737,0.86,-7.41,-4.28
57.769,0.98,-10.98,-4.82
57.82,0.67,-10.83,-4.86
57.869,1.22,-8.87,-8.04
57.992,4.16,-15.49,-4.75
58.001,6.67,-9.06,0.75
58.018,2.24,-5.37,-1.22
58.083,1.69,-12.32,1.69
58.133,3.18,-8.75,-0.35
58.184,1.49,-7.61,-0.31
58.222,0.16,-9.92,0.24
58.284,0.51,-9.14,-0.27
58.336,-0.51,-9.06,-0.63
58.391,-0.27,-9.92,-0.39
58.447,-0.35,-9.49,-0.9
58.499,-1.45,-10.47,-0.24
58.532,-1.37,-10.71,-0.75
58.585,0.86,-13.06,2.47
58.676,4.63,-11.38,3.33
58.686,5.96,-15.26,2.35
58.747,5.61,-10.43,1.65
58.799,-0.59,-9.61,-2.39
58.841,1.41,-7.37,-0.75
58.893,1.41,-7.49,-2.47
58.944,0.43,-4.98,-2.43
59.009,1.33,-6.94,-3.37
59.06,1.61,-9.73,-3.53
59.113,1.06,-9.1,-4.86
59.146,1.26,-9.65,-4.94
59.195,-0.27,-8.94,-6.79
59.303,2.86,-8.67,-7.1
59.313,8.16,-15.26,4.86
59.345,2.63,-3.8,-3.45
59.398,-1.14,-11.3,-1.41
59.449,4.71,-13.45,1.57
59.511,1.33,-6.98,-0.71
59.569,-0.24,-7.73,-0.08
59.604,1.29,-10.24,0.71
59.661,-0.24,-9.18,-0.39
59.706,-1.02,-9.1,0.04
59.764,-1.14,-10.24,-0.75
59.81,-0.04,-9.57,-0.75
59.894,-1.77,-10.08,-0.47
59.93,-1.77,-10.87,-1.02
59.978,-0.27,-13.96,0.67
60.01,3.65,-13.61,2.86
60.066,4.55,-13.57,2.2
60.122,8.67,-9.92,1.61
60.416,1.06,-9.81,-1.92
60.425,0.75,-7.06,-1.37
60.484,2.55,-9.96,-1.73
60.605,2.67,-10,-2.71
60.616,0.43,-8.87,-4.12
60.634,2.28,-10.83,-4.71
60.683,2.75,-14.98,1.73
60.74,2.82,-6.9,-0.27
60.769,2.12,-7.1,-0.78
60.84,1.14,-12.04,1.02
60.876,1.96,-9.53,-0.12
60.934,0.9,-9.69,-0.31
60.988,1.53,-10.12,0.04
61.035,1.26,-10.04,-0.47
61.095,1.96,-10.24,-0.63
61.149,1.33,-10.04,-0.67
61.238,1.14,-10.36,-0.27
61.249,1.77,-9.73,0.27
61.295,1.22,-10.08,-0.24
61.348,1.49,-10.2,0
61.401,1.33,-9.69,-0.04
61.457,1.69,-10.08,-0.24
61.51,1.77,-9.89,0.12
61.55,1.61,-10.04,-0.04
61.605,1.65,-9.85,-0.04
61.658,1.8,-10,-0.12
61.716,1.77,-9.81,0.04
61.74,1.88,-10.04,-0.12
61.8,1.88,-9.89,-0.04
61.875,1.84,-9.85,-0.2
