NAME:,walk_3_2.csv,,
EXPERIMENT TIME:,07/06/2023 16:21,,
ACTIVITY TYPE:,Walking,,
COUNT OF ACTUAL STEPS:,104,,
 ,,,
Time [sec],ACC X,ACC Y,ACC Z
0.009,1.69,-10.32,-4.51
0.057,1.53,-9.45,-4.2
0.1,1.49,-8.67,-4.12
0.164,1.18,-7.88,-4.08
0.217,0.43,-8.32,-4.12
0.275,1.14,-9.02,-4.51
0.305,1.37,-9.41,-5.18
0.364,0.82,-9.14,-5.53
0.422,0.67,-8.9,-5.14
0.501,0.63,-8.51,-5.18
0.517,3.41,-12.94,-2.9
0.56,4.94,-12.4,-0.71
0.63,1.53,-8.51,-0.08
0.688,1.02,-7.65,-0.12
0.72,2.63,-11.65,-0.2
0.776,2.04,-9.69,-0.78
0.827,1.1,-9.69,0
0.878,0.43,-10.08,-0.43
0.924,0.04,-8.79,-0.55
0.982,0.35,-8.9,-0.08
1.034,0.2,-10.12,0.2
1.119,0.59,-10.63,-0.94
1.128,-1.57,-11.45,-1.02
1.175,0.04,-12.32,0.08
1.223,2.51,-12.2,1.57
1.286,3.22,-9.41,2.79
1.345,6.75,-12.43,0.43
1.38,2.55,-12.63,-1.14
1.455,0.43,-9.3,-2.59
1.488,1.61,-7.77,-3.26
1.541,0,-5.41,-3.61
1.591,0.2,-3.1,-3.14
1.635,1.84,-7.61,-5.22
1.721,2.12,-16.87,-2.67
1.756,1.65,-9.22,-7.69
1.807,4.59,-13.06,-6.47
1.858,5.02,-11.61,1.92
1.91,0.94,-5.26,0.2
1.966,0.78,-8.39,-0.63
1.988,2.47,-11.1,-0.08
2.044,0.04,-9.06,-0.31
2.099,2.24,-9.26,0.47
2.162,0.08,-8.87,-0.39
2.198,-1.06,-9.38,-0.75
2.249,-0.94,-9.85,-0.55
2.414,4.16,-13.1,-0.94
2.456,3.37,-12.4,4.2
2.73,6.12,-11.38,-0.16
2.749,2.2,-6.67,-2.94
2.755,1.02,-5.73,-3.88
2.762,0.31,-4.04,-3.37
2.82,1.18,-6.35,-5.3
2.87,1.84,-16.63,-4.67
2.928,2.98,-8.51,-7.61
2.994,4,-13.1,-5.26
3.032,2.71,-11.18,1.8
3.06,2.59,-3.73,0.04
3.133,0.31,-10.75,-0.39
3.184,2.35,-11.85,0.35
3.249,1.18,-8.32,-0.04
3.269,1.26,-9.41,0.24
3.325,-0.35,-8.98,-0.12
3.381,-1.84,-9.45,-1.1
3.432,-0.55,-9.49,-1.73
3.482,-3.45,-10.16,-0.9
3.531,-0.67,-12.28,0
3.582,4.75,-14.32,0.59
3.689,3.57,-10.98,3.69
3.699,6.59,-12.47,0
3.742,4.24,-12.98,-0.43
3.797,-0.98,-8.47,-2
3.825,2.24,-5.45,-1.8
3.901,0.94,-5.1,-2.63
3.929,0.82,-3.73,-2.2
3.987,1.53,-8.47,-5.14
4.043,2.35,-15.93,-2.24
4.092,-0.47,-10.24,-9.77
4.147,5.49,-7.61,-8.08
4.194,4.63,-14.47,5.96
4.238,2.75,-5.65,0.35
4.357,1.26,-8.71,-0.78
4.364,2.75,-11.57,0.63
4.402,-0.16,-9.53,0.04
4.453,0.94,-8.16,0.08
4.536,-1.02,-9.96,-0.08
4.547,-2.24,-9.45,-1.18
4.592,-0.16,-9.34,-0.63
4.644,-2.47,-10.04,0.2
4.715,0.71,-13.34,0.94
4.761,6.39,-14.75,4.24
4.813,4.35,-12.51,0.98
4.863,5.73,-12.12,0.71
4.936,0.31,-10.32,-2.82
4.975,1.29,-6.67,-2
4.998,0.9,-6.71,-2.82
5.057,1.14,-5.57,-3.02
5.105,1.06,-6.2,-2.59
5.153,1.61,-10.28,-3.53
5.211,1.57,-10.63,-4.24
5.26,2.04,-11.38,-7.3
5.323,-1.22,-8.24,-6.24
5.374,4.12,-9.57,-5.33
5.426,7.18,-12.51,5.92
5.479,1.29,-7.81,1.61
5.576,2.63,-5.57,-1.14
5.586,3.57,-11.34,3.06
5.629,0.08,-10.59,0.71
5.682,0.9,-9.3,0.59
5.736,-0.9,-8.87,-0.2
5.808,-2.16,-9.41,-0.98
5.817,-1.61,-9.57,-1.06
5.885,-2.04,-10.79,-0.27
5.939,3.88,-14.24,-0.24
5.991,4.55,-14.04,5.14
6.044,4.71,-10.59,0.71
6.073,4.75,-11.14,-0.67
6.124,0.59,-9.41,-2.63
6.212,1.61,-6.12,-2.12
6.232,1.84,-7.49,-3.45
6.282,0.51,-5.26,-3.65
6.331,-0.08,-5.45,-5.88
6.387,1.06,-10.08,-3.26
6.446,5.45,-12.51,-3.65
6.479,6.32,-14.55,-4.86
6.533,2.9,-8.79,1.84
6.596,2.39,-4.35,-0.16
6.653,0.35,-13.02,0.98
6.7,2.55,-9.73,-0.04
6.751,1.02,-8.43,0.04
6.858,0.43,-9.61,0.04
6.884,0.08,-10.08,-0.39
6.909,-0.78,-9.45,-0.63
6.957,0.12,-9.85,-0.51
7.009,-0.86,-10.79,0.04
7.064,-1.06,-11.06,0.04
7.091,2.31,-12.51,0.39
7.142,2.82,-13.69,4.75
7.213,4.43,-8.83,-0.2
7.262,5.45,-13.53,-0.35
7.311,-1.02,-9.41,-1.65
7.344,2.2,-6.63,-2.2
7.395,1.84,-6.94,-3.92
7.576,0.94,-9.65,-4.39
7.619,2.47,-13.96,-4.12
7.651,1.1,-10.04,-8.51
7.703,4.31,-13.06,-3.96
8.011,5.49,-14.47,2.24
8.021,4.2,-13.49,2.9
8.077,-0.47,-9.18,-0.63
8.222,-1.92,-10.51,-0.59
8.268,-1.06,-11.73,-0.2
8.32,3.69,-12.43,-0.55
8.368,3.1,-12.55,4.86
8.42,4.82,-9.45,0.47
8.47,4.59,-15.22,-1.73
8.53,-0.59,-8.63,-3.77
8.578,2.08,-7.53,-2.67
8.627,0.78,-6.86,-3.65
8.687,0.59,-4.24,-3.18
8.751,1.18,-3.53,-2.71
8.773,2.16,-11.57,-4.04
8.829,4.24,-13.18,-4.08
8.88,1.37,-7.1,-8.24
8.928,5.02,-20.01,-2
8.982,5.22,-9.61,0.51
9.032,-0.39,-6.55,0.2
9.085,2.59,-9.22,-0.16
9.142,3.18,-10.16,2.43
9.193,0.39,-9.41,0.43
9.253,1.33,-9.26,0.16
9.283,-1.53,-9.18,-0.78
9.338,-0.82,-9.65,-0.98
9.389,-1.26,-9.77,-0.16
9.464,-2.08,-11.14,-0.9
9.49,0.04,-12.94,1.14
9.541,5.65,-13.14,3.57
9.598,4.9,-11.18,0.94
9.648,2.63,-13.73,-0.63
9.708,0.86,-9.57,-2.82
9.743,1.61,-6,-2.16
9.795,0.2,-6.59,-3.37
9.849,0.71,-4.67,-3.06
9.908,0.94,-3.8,-3.73
9.965,0.78,-11.06,-3.8
10.011,3.26,-14.16,-5.22
10.103,2.63,-6.71,-5.88
10.107,6.71,-20.01,2.55
10.155,3.8,-8.79,1.37
10.205,-0.59,-5.45,-0.16
10.259,2.86,-11.45,-0.31
10.315,1.53,-9.26,1.45
10.363,-0.12,-9.96,0.55
10.422,0.47,-9.38,-0.24
10.454,-1.65,-8.79,-0.75
10.509,-0.47,-9.61,-0.75
10.568,-0.31,-10.28,-1.1
10.719,4.82,-11.92,3.41
10.769,4.82,-13.38,0.43
10.841,0.24,-10.63,-2.04
10.881,1.22,-9.41,-2.24
10.923,0.9,-7.34,-2.75
10.974,0.12,-6.94,-2.71
11.021,1.84,-4.24,-2.63
11.086,2.2,-3.1,-2.82
11.141,1.84,-11.14,-3.61
11.165,3.22,-13.85,-4.75
11.244,2.98,-8.63,-6.98
11.308,5.02,-17.26,4.31
11.329,2.24,-6.75,1.02
11.384,0.35,-5.3,0.04
11.44,3.1,-13.61,0.55
11.482,0.94,-8.98,0.82
11.537,0.59,-9.14,0.43
11.595,1.29,-9.38,0.08
11.645,-1.69,-8.83,-0.59
11.701,-1.37,-9.57,-0.86
11.736,-1.49,-10.59,-1.18
11.791,-2.04,-10.12,-0.08
11.839,1.69,-13.89,1.65
11.996,3.33,-12.67,-0.55
12.057,1.57,-9.57,-2.47
12.109,1.73,-6.55,-2.04
12.139,0.16,-7.14,-3.1
12.207,0.67,-5.73,-2.55
12.257,1.26,-3.77,-3.61
12.314,2,-10.2,-4.55
12.344,4.39,-13.73,-3.77
12.402,1.18,-6.43,-7.96
12.46,6.9,-20.01,-0.04
12.514,2.79,-6.83,1.8
12.56,1.1,-5.22,-0.08
12.703,0.27,-9.18,-0.16
12.752,0.51,-9.3,-0.82
12.812,-1.77,-9.69,-0.86
12.864,0.39,-9.14,-0.78
12.917,-2.08,-10.08,0.12
12.968,0.67,-11.96,0.16
13.019,5.61,-13.53,-0.08
13.294,3.92,-12.04,1.37
13.304,0,-8.39,-1.45
13.316,1.18,-7.49,-2.67
13.321,0.75,-6,-3.77
13.38,0.55,-4.16,-3.69
13.44,1.33,-6.39,-2.98
13.488,1.73,-15.81,-2.79
13.537,3.65,-11.77,-6.75
13.586,3.37,-11.18,-7.06
13.615,2.86,-14.04,2.98
13.676,2.35,-3.84,1.49
13.724,-0.16,-8.47,-0.31
13.78,2.12,-12.71,1.26
13.9,0.55,-8.59,-0.04
13.911,1.18,-8.55,-0.04
13.933,0.16,-9.81,-0.59
13.989,-1.18,-9.02,-0.94
14.045,-0.35,-10.24,-0.16
14.078,-2.86,-10,-0.24
14.13,0.04,-12.75,0.59
14.181,4.24,-14.2,1.73
14.235,4,-9.3,1.45
14.302,6.98,-13.34,-0.35
14.353,-0.43,-10.63,-2.28
14.385,0.71,-7.26,-1.49
14.451,1.61,-7.73,-3.8
14.507,0.59,-5.3,-3.61
14.587,0.47,-3.37,-3.41
14.598,1.1,-7.65,-3.49
14.659,2.55,-16.24,-3.02
14.685,1.49,-7.57,-7.92
14.781,6.79,-20.01,-6.94
14.806,4,-8.47,1.69
14.852,1.96,-7.1,1.73
14.906,2.24,-5.65,-0.55
14.958,2.35,-14.71,2.9
15.004,0.24,-9.34,-0.31
15.056,1.26,-9.18,0.08
15.108,-1.22,-9.1,-0.39
15.254,-2.31,-10.16,0.08
15.31,-0.63,-13.3,1.06
15.365,6.71,-14.44,1.96
15.421,3.61,-7.85,2.2
15.452,6.24,-11.89,0.16
15.511,0.98,-10.67,-1.45
15.559,0.08,-8.16,-2.71
15.614,2,-7.37,-2.98
15.665,1.06,-6.63,-3.65
15.716,1.02,-4.9,-4.08
15.817,0.94,-5.1,-4
15.846,2.47,-16.95,-2.39
15.865,1.65,-9.57,-7.18
15.935,6.39,-11.73,-6.63
15.963,2.9,-11.18,2.51
16.017,2.2,-5.57,0.39
16.065,2.35,-9.22,-1.06
16.131,2.2,-11.85,1.49
16.185,-0.86,-9.38,-0.39
16.22,0.43,-7.37,-0.9
16.276,-0.31,-10.2,-0.08
16.324,-1.29,-10.2,-1.06
16.381,1.53,-9.85,-0.86
16.501,-2.86,-9.77,-0.67
16.51,-0.55,-12.75,0.67
16.534,5.73,-15.06,2.08
16.591,3.26,-9.41,0.78
16.641,5.45,-11.38,-0.47
16.701,1.29,-11.49,-1.88
16.727,0,-6.94,-1.33
16.784,1.45,-7.49,-2.63
16.837,1.29,-6.39,-3.53
16.88,0.71,-5.1,-3.49
16.939,1.65,-9.85,-4.31
16.995,2.98,-13.77,-4.9
17.048,1.33,-6.43,-7.73
17.143,6.63,-20.01,-5.1
17.15,4.71,-9.34,1.57
17.207,1.37,-4.98,-0.08
17.255,1.61,-9.85,-0.2
17.29,2.35,-10.32,2.12
17.352,-0.04,-9.22,-0.47
17.407,0.78,-9.45,-0.24
17.468,-1.57,-9.89,-0.86
17.495,-1.26,-9.34,-0.82
17.547,0.47,-9.89,-0.94
17.601,-2,-10.4,-0.04
17.65,2.63,-12.79,0.2
17.719,5.02,-15.1,4.71
17.748,4.24,-8.32,0.24
17.808,6.16,-12.4,0.2
17.857,-0.24,-9.45,-2.75
17.912,1.29,-7.41,-2.16
17.963,1.57,-7.81,-3.41
18.013,0.59,-6.28,-3.73
18.069,0.47,-4.35,-4.16
18.12,0.9,-8.28,-4.63
18.173,4.24,-16.51,-2.55
18.231,0.51,-6.75,-8.43
18.259,6.51,-16.51,-7.73
18.572,3.18,-8.24,1.53
18.627,2.67,-9.26,2.24
18.68,-0.94,-9.57,-1.22
18.723,-0.63,-9.69,0
18.783,-2.12,-11.73,-0.63
18.836,2.86,-14.08,-0.67
18.885,5.41,-11.02,4.04
18.92,6.04,-10.79,0
19.096,1.26,-6.08,-2
19.148,1.18,-7.45,-3.61
19.197,0.59,-5.02,-3.65
19.252,0.47,-4.39,-3.18
19.279,1.26,-13.38,-4.16
19.351,3.3,-13.02,-4
19.385,1.37,-4.24,-6.2
19.443,3.37,-20.01,6.39
19.494,2.28,-5.49,0.71
19.547,1.45,-7.53,-0.86
19.595,2.51,-11.53,0
19.679,0.16,-8.47,0.71
19.688,-0.04,-8,-0.24
19.753,0.86,-9.41,-0.08
19.813,-1.53,-9.61,-1.33
19.841,-0.59,-9.81,-0.94
19.913,-2.43,-10.71,0.04
19.961,-0.59,-11.26,0.47
20.013,6.59,-14.44,0.31
20.041,4.9,-10.04,1.26
20.116,5.37,-12.94,0.35
20.148,0.67,-10.79,-4.08
20.201,1.61,-7.18,-1.26
20.253,1.06,-6.59,-3.22
20.347,0.43,-5.84,-3.33
20.358,0.24,-4.08,-4.08
20.42,1.02,-7.53,-4.2
20.47,5.26,-17.14,-2.55
20.517,0.94,-5.92,-9.65
20.565,8.24,-20.01,-8.2
20.623,3.69,-10.94,2.47
20.675,1.45,-6.24,-0.75
20.725,2.12,-10.59,-0.47
20.772,1.69,-8.98,2
20.828,-0.24,-9.14,-0.08
20.885,1.88,-8.28,-0.12
20.915,-1.49,-8.67,-1.1
20.981,-2.43,-10.32,-1.33
21.035,-1.45,-10.75,-0.35
21.064,-0.86,-10.87,-0.43
21.115,4.47,-14.91,-0.2
21.166,3.8,-11.41,3.8
21.219,7.22,-11.41,0.12
21.29,1.92,-12.51,-1.92
21.351,-0.2,-8,-0.9
21.389,1.77,-6.35,-3.06
21.437,1.45,-6.08,-3.33
21.472,-0.16,-4.35,-4.08
21.645,2.55,-7.81,-8.04
21.681,7.14,-20.01,-2.98
21.73,3.96,-8.04,1.45
21.782,0.94,-6.47,-1.53
21.831,1.8,-11.49,-0.16
21.891,1.26,-7.02,-0.12
21.943,-0.27,-8.71,0.04
21.997,0.9,-9.57,-0.55
22.04,-0.24,-9.41,-0.78
22.097,-0.51,-9.73,-0.39
22.153,0.67,-9.96,0.12
22.315,4.12,-13.69,2.82
22.336,4.31,-9.69,0.67
22.411,5.1,-12.63,-0.35
22.449,-0.71,-10.04,-4.28
22.509,1.29,-6.28,-1.45
22.561,0.94,-6.71,-2.98
22.615,0.31,-5.45,-3.45
22.658,0.27,-4.43,-3.73
22.712,0.71,-9.41,-4.28
22.769,4.55,-15.61,-4.28
22.814,1.1,-7.18,-8.75
22.975,1.33,-10.04,0.35
23,2,-8.43,-1.29
23.055,1.61,-9.38,0.55
23.125,0.35,-9.53,0.27
23.178,1.33,-8.63,-0.16
23.229,-0.04,-9.41,0.24
23.282,-1.53,-9.89,-0.63
23.329,-2.24,-10.59,-0.63
23.377,-1.73,-12.32,0.86
23.407,5.02,-13.61,0
23.503,4.98,-10.63,3.53
23.513,5.41,-12.08,-0.04
23.586,2.43,-12.16,-1.18
23.847,0.98,-8.39,-1.88
23.856,1.29,-6.08,-2.94
23.864,0.51,-6.04,-3.88
23.876,2.43,-17.57,-3.84
23.942,2.43,-8.24,-7.92
23.985,4.28,-10.59,-3.77
24.042,3.49,-14.12,0.43
24.097,3.1,-8.28,0.78
24.158,1.53,-6.75,-1.1
24.181,1.8,-11.02,0.24
24.236,0.86,-9.34,0.9
24.297,0.31,-8.16,-0.31
24.346,0.12,-9.65,-0.12
24.399,-2.16,-9.69,-1.1
24.454,-1.26,-9.73,-0.94
24.486,-2.82,-10,-0.31
24.539,0.43,-12.47,0.08
24.587,5.69,-14.4,1.8
24.64,5.69,-9.61,1.37
24.7,4.47,-11.57,0.35
24.78,1.33,-11.14,-2.31
24.792,0.31,-7.14,-1.96
24.858,0.51,-5.96,-3.77
24.912,0.47,-5.33,-3.53
24.94,0.59,-4.75,-3.88
25.012,0.51,-9.18,-4.2
25.063,4.86,-14.95,-3.65
25.094,4.12,-7.06,-8.51
25.155,3.77,-11.26,1.65
25.205,1.8,-11.85,2.04
25.263,1.65,-9.06,0.67
25.312,2.67,-9.49,-0.16
25.362,2.43,-9.26,1.57
25.43,-0.08,-9.41,-0.08
25.454,-0.24,-9.22,0.16
25.507,-1.84,-9.22,-1.06
25.559,-1.61,-9.85,-1.06
25.61,-2.51,-10.24,-0.9
25.665,-1.37,-11.61,0.75
25.729,4.75,-14.67,2
25.781,5.57,-8.98,1.57
25.806,6.04,-14.08,1.26
25.863,1.1,-11.81,-0.98
25.913,2.24,-9.06,-1.37
25.967,0.55,-5.73,-2.9
26.021,0.35,-5.06,-2.75
26.107,0.27,-3.69,-3.26
26.114,1.77,-6.32,-3.73
26.167,3.73,-19.02,-3.53
26.217,1.33,-7.61,-8.43
26.288,4.55,-10.9,-3.14
26.319,6.08,-13.85,0.75
26.38,0.82,-14.04,2.55
26.431,1.53,-4.9,-1.53
26.484,1.69,-9.77,0.31
26.534,0.94,-10.43,1.88
26.582,-0.24,-9.1,0
26.655,-1.1,-8.9,-0.43
26.681,-2.35,-9.45,-1.26
26.732,-1.73,-9.92,-0.75
26.79,-2.59,-10.4,-0.24
26.833,2.28,-15.38,0.2
26.884,4.98,-12.91,3.33
26.94,6.04,-10.79,0.86
26.993,3.37,-13.18,-0.12
27.044,1.37,-8.55,-2.31
27.101,1.57,-5.69,-1.88
27.156,0.59,-6.08,-3.73
27.209,-0.08,-5.49,-3.92
27.236,0.31,-5.3,-4.28
27.288,0.43,-12.59,-4.39
27.377,3.96,-11.73,-5.18
27.396,5.1,-9.65,-5.1
27.442,4.31,-16.48,2.47
27.494,2.63,-9.53,2.63
27.543,1.14,-7.81,-0.12
27.592,1.73,-10.9,-0.31
27.651,0.35,-9.57,1.49
27.714,-0.16,-8.79,-0.35
27.745,0.55,-8.67,-0.08
27.818,-1.61,-9.73,-0.78
27.852,-1.45,-9.65,-0.59
27.904,-2.9,-9.85,-0.24
28.021,-0.71,-13.38,0.51
28.031,4.43,-13.73,2.94
28.075,6.67,-9.45,2.2
28.099,5.53,-14.04,0.94
28.157,1.69,-11.06,-1.65
28.228,2.47,-7.69,-2.2
28.278,0.63,-5.73,-3.65
28.308,-0.39,-4.75,-2.51
28.36,-0.04,-4.16,-2.94
28.411,2.31,-8.36,-3.65
28.47,4.86,-15.61,-2.31
28.531,1.41,-9.26,-9.81
28.586,3.8,-5.61,-5.1
28.657,6.47,-11.81,2.47
28.666,1.96,-12.4,3.18
28.738,1.77,-6.35,0.04
28.771,2.35,-10.24,-0.39
28.819,0.9,-10.16,1.96
29.127,0.67,-9.02,0.04
29.171,5.37,-14.95,3.02
29.343,3.18,-11.18,-0.71
29.401,0.94,-8.28,-0.94
29.426,0.78,-6.2,-3.14
29.485,0.51,-5.65,-3.41
29.538,-0.2,-4.51,-4.47
29.588,0.98,-6.55,-3.8
29.638,3.06,-17.97,-3.69
29.685,1.57,-6.43,-7.41
29.739,5.14,-16.08,-5.65
29.795,5.22,-11.65,0.47
29.846,1.41,-10.51,0.63
29.936,0.86,-7.57,-0.9
29.946,1.57,-10.4,-0.12
30.008,0.16,-9.49,0.59
30.055,-0.04,-8.08,-0.39
30.128,0.39,-9.61,0.39
30.147,-1.22,-9.41,-0.71
30.212,-0.94,-10.24,-0.86
30.255,-3.14,-10.87,-0.39
30.3,1.41,-12.98,0.47
30.352,4.79,-13.26,4.31
30.412,6.75,-10.67,0.43
30.511,5.18,-13.69,-0.47
30.523,0.94,-11.3,-1.26
30.552,1.45,-6.55,-0.75
30.603,0.9,-5.69,-3.65
30.66,0.12,-3.96,-3.33
30.719,-0.27,-3.57,-3.65
30.77,0.86,-9.92,-2.94
30.815,6.12,-17.22,-5.69
30.864,5.45,-5.73,-9.45
30.911,3.65,-12.2,1.26
30.974,2.43,-14.71,3.49
31.034,1.77,-6.94,-0.16
31.063,1.45,-8.71,-0.94
31.113,1.26,-9.81,2
31.198,0.55,-9.14,0.08
31.219,1.1,-8.75,0.67
31.268,-1.92,-9.65,-0.63
31.321,-2.51,-10.36,-0.67
31.372,-2.82,-10.51,0.08
31.43,-1.29,-11.1,-0.16
31.486,4.9,-13.53,1.02
31.539,3.53,-9.81,3.37
31.591,5.37,-11.85,0.24
31.644,3.06,-12.71,0
31.689,0.67,-10.2,-3.3
31.727,1.33,-6.9,-3.3
31.773,0.2,-5.92,-3.84
31.883,0.16,-3.88,-3.3
31.895,1.49,-4.71,-2.94
31.942,2.51,-17.65,-2.55
31.994,2.9,-9.85,-5.06
32.044,3.1,-4.39,-5.22
32.102,4.55,-11.77,2.63
32.152,2.82,-12.59,4.08
32.178,1.8,-7.3,0.35
32.259,3.14,-7.53,-0.43
32.288,1.61,-10.55,2.55
32.359,0,-9.53,-0.04
32.43,-0.82,-8.98,-0.47
32.44,-2.2,-9.57,-1.14
32.51,-1.61,-9.73,-1.22
32.543,-2.51,-10.24,-0.24
32.596,0.12,-12.04,0.75
32.648,5.49,-14.16,1.49
32.708,5.41,-9.34,1.69
32.758,6.47,-13.49,0.98
32.815,1.29,-12.94,-1.29
32.845,1.69,-8.04,-1.92
32.908,1.1,-7.18,-2.75
32.962,-0.12,-5.26,-3.26
33.015,0.24,-3.77,-3.73
33.107,0.67,-6.2,-3.69
33.116,2.35,-16.95,-3.8
33.171,3.92,-8.51,-8.43
33.222,3.45,-14.2,-0.67
33.274,3.41,-10.59,-1.37
33.307,2.55,-10.9,1.73
33.36,0.86,-7.69,-1.37
33.408,0.9,-9.38,0.86
33.46,0.75,-8.75,0.43
33.514,0.98,-8.63,0.16
33.565,-0.78,-9.92,0
33.62,-2.43,-9.89,-0.82
33.774,2.86,-13.65,0.2
33.821,4.82,-13.93,3.84
33.866,4.08,-9.53,1.18
33.924,5.3,-13.14,0.12
33.99,0.75,-10.55,-1.92
34.017,0.82,-6.79,-2.43
34.075,0.35,-6.04,-3.61
34.14,0.16,-4.82,-3.57
34.413,0.86,-3.8,-3.37
34.422,0.82,-9.69,-2.79
34.437,6.55,-16,-4.9
34.487,1.8,-6.83,0.2
34.54,1.73,-6.35,-0.35
34.588,2.51,-12.79,3.14
34.639,-1.02,-9.34,-0.43
34.691,-0.51,-7.37,-0.51
34.746,-1.84,-10.43,-0.9
34.803,-1.49,-10.63,-1.06
34.856,-2.24,-10.16,0.08
34.884,0.04,-12.43,0.51
34.943,4.43,-13.96,2.39
34.996,4.63,-9.38,0.98
35.059,5.06,-12.24,0.98
35.086,1.96,-11.92,-0.39
35.144,2.08,-9.26,-1.1
35.195,1.73,-5.77,-2.79
35.247,0.59,-5.96,-3.26
35.307,-0.94,-4.98,-3.8
35.356,0.55,-5.96,-2.39
35.407,2.71,-16.59,-3.45
35.461,4.67,-11.18,-7.34
35.516,3.26,-4.9,-5.88
35.547,2.24,-16.4,5.57
35.601,2.9,-5.88,2
35.703,1.22,-4.63,-0.2
35.71,1.26,-12.08,-0.51
35.762,1.14,-9.57,0.86
35.813,0.24,-8.39,-0.39
35.86,-0.27,-9.22,-0.43
35.911,-1.26,-9.69,-1.1
35.965,-0.71,-9.18,-0.31
36.024,-3.61,-9.57,-0.27
36.069,1.22,-12.87,0.31
36.125,5.26,-13.81,2.63
36.175,5.65,-8.98,1.22
36.231,5.45,-13.02,0.55
36.388,0.67,-6.94,-3.14
36.419,0.43,-5.84,-3.41
36.473,0.43,-4.86,-3.77
36.528,1.57,-6.51,-2.67
36.583,3.65,-17.42,-3.06
36.642,3.3,-9.26,-9.85
36.671,2.71,-10.63,-3.57
36.725,4.28,-12.67,-1.73
36.775,2.82,-11.14,1.29
36.825,1.18,-6.55,-0.47
36.879,2.28,-9.02,0.2
36.93,1.61,-9.77,0.98
37.006,0.12,-9.45,0.39
37.034,-1.06,-8.2,-0.98
37.092,-1.88,-9.53,-0.98
37.145,-0.2,-10.43,-0.71
37.18,-2.04,-9.81,-1.1
37.239,1.18,-13.49,-0.16
37.295,5.77,-13.26,0.9
37.344,5.33,-9.96,1.02
37.395,4.94,-13.93,0.59
37.449,1.73,-10.47,-1.69
37.497,2.51,-8.59,-2.35
37.661,0.16,-4.31,-4.2
37.692,0.98,-7.57,-3.88
37.748,3.96,-16.32,-3.69
37.807,4.9,-6.39,-10.32
37.862,2,-10.55,-0.47
37.907,1.69,-14.08,1.61
37.961,2.43,-8.2,0.98
38.009,2.39,-7.73,-1.45
38.05,1.41,-10.83,1.02
38.123,0.98,-9.73,0.31
38.155,0.86,-8.71,0.16
38.23,-0.51,-8.28,-0.24
38.254,-2.08,-9.14,-1.26
38.309,-1.57,-10.43,-0.75
38.378,-3.92,-10.59,-0.86
38.423,2.51,-13.77,-0.78
38.462,6.39,-12.67,2.59
38.511,5.41,-10.94,0.55
38.563,3.92,-12.87,0.35
38.615,1.57,-10.08,-1.49
38.669,2,-8,-2.12
38.723,0.63,-6.28,-3.49
38.775,0.43,-4.39,-2.9
38.881,0.04,-3.84,-3.26
38.892,2.2,-11.57,-2.55
38.913,4.82,-16,-5.61
38.988,1.14,-3.37,-10
39.014,3.02,-12.43,-1.37
39.096,4.24,-16.04,7.34
39.124,1.65,-6.98,0.67
39.19,3.3,-6.55,-1.02
39.244,2.71,-13.1,3.33
39.291,-0.55,-10.08,0.67
39.351,0.55,-7.65,-0.51
39.374,-1.8,-8.67,-1.22
39.684,-2.47,-10.32,-0.75
39.693,-0.12,-10.32,-0.86
39.699,-2.63,-10.04,-1.06
39.719,2.43,-14.71,1.06
39.749,3.26,-12.63,-0.2
39.805,0.86,-10.36,-2.08
39.831,2.16,-7.73,-2.67
39.886,0.24,-5.37,-3.06
39.944,-0.39,-3.73,-2.94
39.997,0.63,-5.1,-3.96
40.052,2.16,-15.1,-4.2
40.191,6,-19.34,0.04
40.253,3.77,-10.75,2.47
40.307,1.37,-7.14,-0.98
40.371,1.1,-9.96,-0.12
40.397,1.02,-10.12,1.73
40.448,0.12,-9.06,-0.12
40.503,-0.75,-8.79,-0.35
40.549,-2.35,-9.18,-1.49
40.604,-1.49,-9.38,-1.02
40.654,-2.28,-10.12,0.12
40.824,5.77,-8.9,1.26
40.869,5.02,-12.51,1.41
40.904,1.8,-11.18,-0.82
40.97,1.96,-9.1,-1.53
41.017,1.57,-6.39,-3.02
41.072,0.04,-5.65,-3.22
41.128,-0.27,-4.55,-3.77
41.184,0.47,-7.77,-3.92
41.212,4,-17.14,-4
41.264,1.69,-7.3,-8.79
41.317,4.39,-13.3,-3.92
41.38,5.22,-10.94,0.35
41.428,1.53,-11.34,1.84
41.485,0.86,-6.43,-0.55
41.546,2.39,-9.06,-0.75
41.581,1.57,-9.14,1.57
41.649,0.75,-9.02,0.31
41.68,-0.16,-9.65,-0.2
41.721,-2.24,-9.65,-0.94
41.772,-0.94,-9.45,-0.86
41.822,-2.94,-10.32,-0.04
41.879,1.77,-13.85,0.31
41.929,4.51,-13.45,2.67
41.989,5.26,-9.34,1.57
42.06,5.26,-14,0.63
42.087,0.47,-11.18,-1.96
42.141,1.77,-8.16,-1.45
42.196,1.53,-5.69,-3.41
42.232,0.12,-4.59,-3.22
42.307,0.51,-3.41,-3.53
42.336,1.88,-8.08,-3.45
42.393,6.51,-18.91,-2.55
42.442,2.86,-5.53,-9.89
42.489,2.63,-14.32,0
42.543,2.55,-13.77,2.75
42.599,1.65,-6.98,0.39
42.659,1.33,-7.53,-1.18
42.743,1.88,-12.2,2.79
42.752,0.47,-8.94,-0.16
42.801,0.35,-7.73,0.24
42.853,-1.45,-10.04,-0.55
42.928,-1.73,-9.96,-1.18
42.967,-2.94,-10.9,-0.27
42.994,-0.71,-12.12,0.9
43.049,6.63,-13.81,2.39
43.103,5.49,-10.47,3.02
43.154,6.12,-11.89,-0.12
43.208,2.12,-12.63,-0.78
43.3,0.12,-9.3,-2.08
43.33,1.29,-5.65,-3.02
43.352,1.29,-5.02,-3.45
43.406,0.75,-3.96,-3.22
43.459,0.94,-7.77,-4.12
43.509,2.82,-14.16,-5.65
43.574,2.79,-8.51,-7.53
43.624,4.2,-16.28,-0.04
43.672,3.61,-13.3,1.96
43.729,2.98,-5.96,0.82
43.758,0.63,-8.67,-0.71
43.812,1.84,-11.18,0.55
43.864,1.22,-7.81,0.78
44.038,-2.31,-10.28,-1.14
44.081,-1.49,-9.53,-1.14
44.131,-3.1,-9.89,0.27
44.166,3.14,-13.57,0.08
44.22,5.22,-13.96,2.55
44.272,5.3,-9.49,0.71
44.345,4.82,-12.75,-0.16
44.376,1.22,-10.79,-1.22
44.443,1.29,-7.37,-1.88
44.472,1.02,-5.88,-3.37
44.526,0.39,-5.06,-3.37
44.589,0.55,-4.43,-3.49
44.649,1.92,-9.3,-3.3
44.678,6.24,-16.32,-3.69
44.962,6.63,-16.24,-2.86
44.969,3.8,-8.28,-0.2
44.985,1.18,-13.34,2
44.992,1.26,-9.96,1.96
45.044,0.2,-8.55,-0.51
45.102,0.39,-9.22,0.47
45.159,-2.08,-9.49,-1.49
45.186,-2.08,-9.85,-0.86
45.25,-2.08,-10.59,-0.04
45.287,3.57,-14.71,0.31
45.353,4.59,-12.12,1.96
45.4,4.94,-12.2,0.78
45.45,2.51,-12.4,-0.51
45.493,0.9,-10.36,-1.45
45.56,1.06,-6.63,-1.77
45.614,0.55,-5.57,-3.8
45.665,0.24,-4.82,-3.18
45.719,0.67,-5.37,-3.06
45.748,2.67,-12.12,-5.33
45.8,3.8,-10.51,-4.63
45.981,2.08,-10.98,1.26
46.008,1.61,-7.49,0.2
46.063,1.61,-10.2,-1.37
46.112,1.18,-10.51,1.96
46.17,0.43,-9.38,0.31
46.22,0.75,-7.61,-0.24
46.279,-1.41,-7.69,-0.51
46.329,-2.2,-11.38,-0.47
46.358,-0.75,-11.1,-0.08
46.411,-1.88,-11.02,-0.31
46.542,3.02,-14.51,1.77
46.553,5.88,-10.51,1.57
46.573,5.45,-11.77,0.86
46.626,1.96,-12.75,-0.47
46.684,1.02,-10.51,-2.16
46.74,0.78,-6.43,-1.88
46.768,0.71,-5.73,-3.02
46.823,0.47,-4.71,-2.63
46.873,1.33,-4.98,-4.24
46.924,1.41,-13.61,-3.45
46.982,3.49,-11.77,-4.75
47.034,5.33,-6.94,-4.79
47.08,5.88,-12.55,0.94
47.157,2.47,-11.3,2.98
47.184,1.26,-7.37,0
47.233,2.43,-9.26,-0.08
47.284,2.12,-10.36,2.67
47.343,0.27,-9.1,0.43
47.399,0.04,-9.06,0
47.428,-1.88,-9.1,-1.8
47.491,-2.2,-9.96,-1.84
47.547,-3.26,-10.16,-0.16
47.604,0.51,-12.94,1.45
47.632,4.82,-13.45,3.33
47.686,7.3,-8.2,0.55
47.741,5.92,-14.24,1.8
47.83,0.24,-11.81,-1.14
47.856,2.16,-8.79,-2.71
47.886,1.49,-6.47,-2.71
47.963,0.47,-5.1,-2.9
47.99,0.39,-4.82,-3.37
48.048,1.06,-6.32,-3.69
48.103,2.2,-16.59,-4.16
48.154,3.69,-8.9,-7.85
48.214,4.79,-13.93,-1.8
48.263,3.57,-11.49,1.33
48.315,2.82,-7.69,0.71
48.366,0.12,-9.41,-0.39
48.444,1.49,-9.69,-0.2
48.453,1.33,-8.32,1.06
48.506,0.39,-9.34,0.31
48.556,1.14,-9.96,0.51
48.621,-2.12,-9.26,-1.22
48.653,-1.65,-9.69,-0.51
48.733,-3.33,-10.36,-0.08
48.762,2.16,-14.91,0.98
48.825,6.75,-11.45,1.61
48.876,5.65,-11.53,1.18
48.925,2.63,-12.67,-0.16
48.983,1.26,-10,-0.86
49.034,2.12,-7.45,-2
49.136,0.9,-5.69,-3.69
49.145,0,-4.24,-2.98
49.178,-0.2,-4.16,-3.73
49.215,1.69,-12.32,-2.63
49.273,4.43,-15.14,-5.22
49.327,5.96,-14.87,-1.37
49.383,5.61,-7.41,0.63
49.435,1.69,-15.22,3.02
49.487,0.9,-6.71,-0.35
49.533,2.35,-8.32,-1.33
49.591,0.78,-11.3,2.39
49.642,0.24,-8.9,-0.12
49.757,1.1,-8.59,0.78
49.768,-1.41,-9.41,-0.55
49.791,-1.88,-9.85,-1.1
49.836,-3.26,-10.43,-0.2
49.9,0.78,-13.34,0.98
49.95,5.41,-14.55,3.1
50.25,5.14,-9.92,1.26
50.285,0.59,-4.71,-4.31
50.38,0.86,-7.1,-4.04
50.389,4,-17.5,-2.82
50.448,2.79,-7.53,-9.65
50.502,5.81,-18.01,-3.06
50.554,2.82,-8.39,0.59
50.615,1.02,-7.73,-0.98
50.668,1.61,-11.22,0.39
50.718,2.63,-10.08,0.31
50.75,0,-8.39,0.04
50.799,0,-8.9,0.16
50.847,-0.24,-9.3,0.27
50.894,-1.49,-9.3,-1.41
50.948,-0.86,-9.41,-0.31
51.049,-3.37,-9.26,-1.02
51.053,-1.29,-12.91,1.06
51.1,4.82,-12.16,3.61
51.152,8.59,-11.69,-0.55
51.203,3.96,-15.89,-0.24
51.257,-0.16,-10.98,-2.63
51.315,1.96,-8.2,-0.98
51.371,1.84,-5.57,-3.26
51.424,-0.35,-3.3,-2.75
51.475,-0.51,-3.37,-2.79
51.531,1.84,-12.24,-3.37
51.582,4.12,-12.12,-4.71
51.634,1.22,-3.92,-9.14
51.711,3.77,-20.01,0.86
51.718,4.16,-13.93,4
51.784,1.96,-8.04,0.12
51.815,3.26,-8.94,-0.98
51.89,2.12,-11.92,2.16
51.938,0.47,-10.08,0.86
51.992,-0.16,-8.55,-0.12
52.04,-0.94,-8,-0.51
52.094,-2.9,-8.67,-1.65
52.127,-1.02,-9.92,-0.31
52.187,-2.79,-10.08,-0.59
52.272,3.57,-15.69,0
52.281,5.92,-13.73,4.08
52.344,6.08,-12.63,1.26
52.395,3.49,-12.43,0.04
52.443,1.53,-9.53,-0.9
52.495,1.37,-7.1,-2.43
52.554,0.24,-5.81,-2.9
52.59,0.78,-4.82,-2.28
52.644,0.75,-3.84,-2.98
52.696,3.3,-9.49,-1.8
52.748,5.57,-13.49,-3.77
52.801,2.79,-6.16,-9.89
52.848,2.35,-18.95,2.39
52.978,2.79,-8.9,0.94
52.993,2.08,-9.38,0.67
53.005,3.73,-8.04,-0.94
53.046,2.24,-9.89,1.77
53.097,0.86,-10.51,1.26
53.17,0.04,-9.1,-0.04
53.201,-1.53,-9.45,-0.55
53.254,-2.16,-8.9,-1.69
53.309,-1.18,-9.49,-0.51
53.37,-2.2,-9.18,-0.94
53.399,1.73,-14.2,0.12
53.452,5.37,-12.04,4.55
53.51,5.96,-10.59,0.31
53.559,5.69,-13.02,0.2
53.627,0.51,-11.3,-1.06
53.655,1.02,-8.08,-2.28
53.713,1.69,-7.14,-3.26
53.763,0.71,-5.02,-2.71
53.804,0.43,-4.51,-3.45
53.873,1.29,-9.61,-3.8
53.923,3.1,-12.55,-4.12
53.962,1.69,-8.83,-7.85
54.03,1.14,-7.18,-6.24
54.083,6.83,-20.01,2.24
54.118,3.18,-7.65,1.45
54.167,0.86,-6.08,-0.08
54.319,0,-9.65,0.27
54.372,1.57,-8.2,-0.67
54.422,-0.39,-9.41,-0.86
54.468,-1.06,-9.77,-1.06
54.525,-1.22,-9.92,-0.47
54.584,-2.86,-10,0.78
54.641,4.55,-13.42,-0.08
54.69,4.28,-13.38,3.84
54.738,4.59,-8.87,-0.24
54.795,5.06,-13.49,0.12
54.882,0.98,-10.63,-1.8
54.891,1.8,-8.39,-1.77
54.939,1.14,-7.18,-3.53
54.99,0.35,-5.02,-3.1
55.04,-0.35,-4.51,-4.28
55.092,-0.16,-8.12,-4.9
55.15,2.94,-16.71,-3.88
55.182,4.63,-8.71,-8.98
55.253,2.04,-10.47,-0.63
55.529,2.08,-11.81,0.35
55.596,0.31,-8.83,-0.39
55.651,-1.02,-10.16,-0.39
55.701,-0.63,-9.85,-0.47
55.743,-2.47,-10.24,-0.27
55.794,0.82,-12.51,0.55
55.847,4.71,-14.2,2.35
55.903,3.92,-8.98,2.71
55.959,4.39,-11.61,0.16
56.007,3.57,-13.73,-0.2
56.068,-0.67,-10.4,-3.26
56.177,0.9,-7.3,-3.14
56.185,0.31,-7.02,-4.04
56.207,0.04,-4.08,-3.65
56.274,0.67,-4.94,-2.9
56.327,1.45,-14.83,-3.96
56.36,2.94,-11.77,-5.02
56.421,2.39,-6.98,-8.67
56.474,3.1,-17.93,2.28
56.529,4.2,-7.14,1.53
56.556,0.9,-9.45,0.75
56.631,2.12,-9.3,-1.1
56.659,2.2,-10.75,1.14
56.716,-0.12,-8.94,-0.39
56.81,0.63,-9.26,0.12
56.818,-1.41,-9.14,-0.31
56.89,-1.33,-9.1,-0.08
56.936,-0.63,-10.2,-1.41
57.009,-3.33,-10.83,1.45
57.02,4.94,-14.55,2.2
57.084,5.02,-12.24,3.8
57.136,3.61,-9.73,0.59
57.171,3.92,-12,-1.1
57.246,0.55,-10.36,-1.77
57.273,0.75,-6.28,-3.1
57.323,0.98,-7.45,-4.43
57.423,-0.16,-5.26,-4.04
57.432,-0.67,-5.33,-4.67
57.499,1.8,-11.85,-4.16
57.552,5.3,-10.4,-4.98
57.582,3.8,-15.65,-1.69
57.638,2.98,-10.87,-0.71
57.689,2.59,-8.24,0
57.731,-0.39,-10.12,-0.2
57.783,1.88,-8.04,-0.9
57.843,2.31,-9.34,1.14
57.898,0.35,-9.3,0.04
57.955,1.26,-9.77,0.71
58.061,-1.84,-9.49,-0.55
58.072,-0.82,-9.41,-0.82
58.097,-2.9,-9.73,-0.24
58.162,1.92,-13.57,0.86
58.192,5.02,-13.38,1.02
58.244,4.94,-10.47,2.86
58.314,3.77,-11.14,0.55
58.366,2.9,-11.65,-0.12
58.414,0.71,-9.02,-1.57
58.469,1.88,-6.04,-3.18
58.5,0.47,-6.51,-3.57
58.557,-0.12,-5.41,-4.2
58.609,1.22,-5.26,-4.98
58.661,0.35,-13.3,-3.61
58.732,3.18,-11.34,-6.47
58.759,5.41,-15.77,-6.2
58.807,1.49,-9.57,1.49
58.863,1.18,-5.92,-0.63
58.911,0.43,-12.08,-0.59
58.97,3.33,-9.53,0
59.028,1.57,-9.26,0.51
59.062,0.71,-8.16,-0.27
59.116,-0.16,-9.06,0.27
59.173,-1.45,-8.83,-0.63
59.224,0.08,-9.89,-0.9
59.329,-2.86,-10.47,-0.16
59.341,-0.08,-11.92,0.9
59.382,4.79,-14.4,3.61
59.431,5.69,-9.92,2.82
59.491,4.16,-12.04,0.98
59.522,1.45,-12.28,-1.65
59.591,0.63,-8.32,-1.57
59.645,0.82,-6.04,-2.51
59.667,1.06,-6.79,-3.18
59.749,0.82,-5.69,-4.12
59.785,0.59,-6.55,-3.57
59.825,1.02,-12.91,-3.65
59.883,2.43,-10.63,-5.37
59.94,4.86,-11.96,-5.81
60.038,2.43,-14.67,0.47
60.049,2.39,-9.49,1.77
60.09,1.53,-9.26,-0.12
60.142,2.59,-9.49,-0.24
60.189,1.73,-9.77,1.41
60.247,0.27,-10.08,-0.35
60.298,0.86,-8.63,0.12
60.359,-1.57,-8.2,-1.14
60.388,-1.22,-10.12,-0.94
60.443,-1.8,-9.96,-0.04
60.508,-1.65,-9.96,-1.53
60.537,1.73,-12.98,0.71
60.808,5.41,-14.51,3.41
60.846,-0.12,-6.86,-3.02
60.897,0.47,-5.96,-2.9
60.952,1.18,-5.84,-2.75
61.005,1.14,-9.02,-2.04
61.053,2.86,-10.87,-2.82
61.105,0.31,-11.85,-5.53
61.163,1.96,-9.89,-5.02
61.307,1.26,-7.22,-0.27
61.354,1.53,-12.16,0.2
61.405,2.24,-9.49,0.16
61.461,1.18,-8.98,-0.27
61.516,2.28,-10.2,-0.63
61.564,0.27,-10.59,-1.26
61.62,1.06,-10.28,-0.51
61.659,1.06,-10.28,-0.82
61.711,1.41,-9.85,-0.63
61.774,1.77,-9.73,0
61.83,2.08,-9.53,-0.12
61.916,2.51,-9.77,-0.27
61.925,2.51,-9.81,-0.27
61.969,2.24,-9.81,-0.51
62.02,2.31,-9.85,-0.27
62.067,2.75,-9.73,-0.71
62.128,2.47,-9.61,-0.55
62.18,2.2,-9.61,-0.67
62.22,2.31,-9.53,-0.78
62.275,2.63,-9.73,-0.75
62.325,2.55,-9.73,-0.75
62.38,2.43,-9.73,-0.86
62.428,2.2,-9.57,-0.86
62.544,2.35,-9.73,-0.63
62.549,2.28,-9.77,-0.75
62.578,2.2,-9.69,-0.9
62.643,2.31,-9.61,-0.75
62.702,2.39,-9.77,-0.55
62.746,2.24,-9.81,-0.63
62.804,2.31,-9.73,-0.67
62.836,2.28,-9.69,-0.59
62.89,2.31,-9.81,-0.63
62.938,2.12,-9.73,-0.67
62.985,2.16,-9.77,-0.67
63.037,1.96,-9.81,-0.67
63.1,1.96,-9.81,-0.59
63.14,1.96,-9.89,-0.43
63.188,2.08,-9.85,-0.47
63.246,2.2,-9.81,-0.47
63.302,2.16,-9.96,-0.35
63.354,2.28,-9.85,-0.27
63.405,2.16,-9.81,-0.31
63.458,2.04,-9.81,-0.51
63.508,1.65,-9.81,-0.71
63.558,1.45,-9.85,-0.86
63.616,1.29,-9.89,-0.86
63.671,1.18,-10.08,-1.02
63.719,1.53,-9.89,-0.86
63.749,1.73,-10.04,-0.67
63.853,1.84,-9.81,-0.39
63.864,1.96,-9.81,-0.47
63.91,2.12,-9.85,-0.39
63.963,2,-9.89,-0.39
64.017,1.73,-9.96,-0.55
64.07,1.53,-9.89,-0.63
64.117,1.45,-9.85,-0.67
64.176,1.57,-9.89,-0.63
64.227,2.04,-10,-0.59
64.276,1.96,-9.73,-0.59
64.335,1.92,-9.92,-0.59
64.389,1.77,-9.89,-0.67
64.548,1.65,-9.96,-0.67
64.587,1.84,-9.81,-0.75
64.639,1.92,-9.89,-0.67
64.687,2.12,-9.89,-0.55
64.744,1.96,-9.81,-0.59
64.787,1.92,-9.92,-0.55
64.838,1.84,-9.69,-0.67
64.89,1.88,-9.96,-0.71
64.926,1.84,-9.85,-0.67
64.972,1.88,-9.81,-0.71
65.027,1.88,-9.77,-0.59
