walk_2_2,NAME:,,
08/06/2023 10:46,EXPERIMENT TIME:,,
Walking,ACTIVITY TYPE:,,
85,COUNT OF ACTUAL STEPS,,
,,,
ACC Z,ACC Y,ACC X,Time [sec]
-11.55,-0.43,-0.41,0.013
-11.1,-1.31,0.48,0.129
-11.01,-1.46,1.16,0.212
-10.8,-1.99,1.63,0.306
-10.8,-1.99,1.63,0.377
-10.8,-1.99,1.63,0.467
-10.8,-1.99,1.63,0.515
-10.8,-1.99,1.63,0.599
-10.8,-1.99,1.63,0.677
-10.8,-1.99,1.63,0.741
-10.8,-1.99,1.63,0.839
-10.16,-2.25,0.81,0.912
-10.4,-2.85,0.16,0.998
-10.62,-2.8,0.13,1.087
-10.62,-2.8,0.13,1.163
-10.62,-2.8,0.13,1.245
-10.62,-2.8,0.13,1.338
-10.62,-2.8,0.13,1.409
-10.62,-2.8,0.13,1.492
-10.62,-2.8,0.13,1.564
-10.62,-2.8,0.13,1.642
-11.75,-2.21,0.68,1.733
-10.76,-2.14,1.19,1.812
-10.54,-1.66,1.18,1.892
-10.54,-1.66,1.18,1.976
-10.54,-1.66,1.18,2.053
-10.54,-1.66,1.18,2.13
-10.54,-1.66,1.18,2.211
-10.54,-1.66,1.18,2.289
-10.54,-1.66,1.18,2.367
-10.54,-1.66,1.18,2.473
-10.63,-2.12,1.31,2.544
-11.44,-1.57,0.82,2.62
-11.49,-1.35,0.18,2.702
-11.49,-1.35,0.18,2.777
-11.49,-1.35,0.18,2.867
-11.49,-1.35,0.18,2.951
-11.49,-1.35,0.18,3.029
-11.49,-1.35,0.18,3.126
-11.49,-1.35,0.18,3.2
-11.49,-1.35,0.18,3.273
-11.05,-0.54,0.22,3.362
-10.36,-0.54,1.19,3.436
-10.42,-0.54,2,3.508
-10.42,-0.54,2,3.582
-10.42,-0.54,2,3.662
-10.42,-0.54,2,3.771
-10.42,-0.54,2,3.843
-10.42,-0.54,2,3.918
-10.42,-0.54,2,4.009
-10.42,-0.54,2,4.086
-10.43,-0.09,1.11,4.166
-11.21,0.1,0.13,4.246
-11.48,0.04,-0.71,4.333
-11.48,0.04,-0.71,4.41
-11.48,0.04,-0.71,4.496
-11.48,0.04,-0.71,4.575
-11.48,0.04,-0.71,4.652
-11.48,0.04,-0.71,4.726
-11.48,0.04,-0.71,4.803
-11.48,0.04,-0.71,4.895
-12.25,-0.68,-0.03,4.983
-12.28,0.17,0.39,5.057
-13.15,-1.4,1.95,5.137
-13.15,-1.4,1.95,5.214
-13.15,-1.4,1.95,5.299
-13.15,-1.4,1.95,5.377
-13.15,-1.4,1.95,5.455
-13.15,-1.4,1.95,5.539
-13.15,-1.4,1.95,5.639
-13.15,-1.4,1.95,5.715
-12.76,-0.63,1.29,5.796
-13.44,-2.56,1.1,5.878
-12.04,-2.08,-0.17,5.956
-12.04,-2.08,-0.17,6.034
-12.04,-2.08,-0.17,6.112
-12.04,-2.08,-0.17,6.2
-12.04,-2.08,-0.17,6.279
-12.04,-2.08,-0.17,6.363
-12.04,-2.08,-0.17,6.444
-12.04,-2.08,-0.17,6.521
-13.18,-3.75,1.28,6.596
-11.11,-3.15,1.37,6.676
-11.4,-2.31,1.67,6.753
-11.4,-2.31,1.67,6.832
-11.4,-2.31,1.67,6.919
-11.4,-2.31,1.67,6.996
-11.4,-2.31,1.67,7.081
-11.4,-2.31,1.67,7.159
-11.4,-2.31,1.67,7.236
-11.4,-2.31,1.67,7.324
-10.6,-0.95,0.58,7.404
-11.38,-0.34,0.46,7.502
-10.97,0.43,0.77,7.576
-10.97,0.43,0.77,7.657
-10.97,0.43,0.77,7.735
-10.97,0.43,0.77,7.813
-10.97,0.43,0.77,7.901
-10.97,0.43,0.77,7.98
-10.97,0.43,0.77,8.06
-10.97,0.43,0.77,8.131
-10.08,0.59,0.81,8.206
-10.53,0.99,0.46,8.29
-10.94,0.93,-0.08,8.369
-10.94,0.93,-0.08,8.449
-10.94,0.93,-0.08,8.535
-10.94,0.93,-0.08,8.611
-10.94,0.93,-0.08,8.691
-10.94,0.93,-0.08,8.77
-10.94,0.93,-0.08,8.866
-10.94,0.93,-0.08,8.946
-10.92,0.77,0.27,9.026
-10.85,0.64,0.77,9.116
-11.56,0.5,1.12,9.193
-11.56,0.5,1.12,9.274
-11.56,0.5,1.12,9.348
-11.56,0.5,1.12,9.433
-11.56,0.5,1.12,9.507
-11.56,0.5,1.12,9.579
-11.56,0.5,1.12,9.661
-11.56,0.5,1.12,9.741
-12.02,0.56,0.71,9.815
-12.51,0.54,0.31,9.895
-13.1,-0.67,-0.22,9.972
-13.1,-0.67,-0.22,10.076
-13.1,-0.67,-0.22,10.159
-13.1,-0.67,-0.22,10.232
-13.1,-0.67,-0.22,10.317
-13.1,-0.67,-0.22,10.421
-13.1,-0.67,-0.22,10.497
-13.1,-0.67,-0.22,10.577
-13.3,0.14,0.24,10.658
-13.56,-1.52,1.54,10.734
-11.6,-0.97,1.67,10.812
-11.6,-0.97,1.67,10.898
-11.6,-0.97,1.67,10.986
-11.6,-0.97,1.67,11.06
-11.6,-0.97,1.67,11.156
-11.6,-0.97,1.67,11.23
-11.6,-0.97,1.67,11.303
-11.6,-0.97,1.67,11.377
-10.68,-2.68,1.56,11.455
-10.6,-1.56,0.67,11.53
-10.64,-1.7,0.67,11.621
-10.64,-1.7,0.67,11.694
-10.64,-1.7,0.67,11.779
-10.64,-1.7,0.67,11.864
-10.64,-1.7,0.67,11.939
-10.64,-1.7,0.67,12.021
-10.64,-1.7,0.67,12.097
-10.64,-1.7,0.67,12.178
-11.41,-0.86,0.64,12.257
-10.28,-0.89,0.64,12.336
-10.6,-0.38,0.34,12.425
-10.6,-0.38,0.34,12.527
-10.6,-0.38,0.34,12.605
-10.6,-0.38,0.34,12.682
-10.6,-0.38,0.34,12.769
-10.6,-0.38,0.34,12.844
-10.6,-0.38,0.34,12.921
-10.6,-0.38,0.34,12.997
-10.41,0.12,0.01,13.088
-10.64,-0.37,0.71,13.172
-10.75,0.04,1.31,13.253
-10.75,0.04,1.31,13.329
-10.75,0.04,1.31,13.382
-10.75,0.04,1.31,13.476
-10.75,0.04,1.31,13.555
-10.75,0.04,1.31,13.658
-10.75,0.04,1.31,13.737
-10.75,0.04,1.31,13.815
-10.79,-0.25,1.36,13.898
-11.14,0.52,0.73,13.975
-12.09,0.5,0.84,14.051
-12.09,0.5,0.84,14.134
-12.09,0.5,0.84,14.218
-12.09,0.5,0.84,14.295
-12.09,0.5,0.84,14.374
-12.09,0.5,0.84,14.451
-12.09,0.5,0.84,14.537
-12.09,0.5,0.84,14.615
-12.36,0.42,1.75,14.696
-13.57,-0.76,2.96,14.797
-12.47,-3.06,2.94,14.882
-12.47,-3.06,2.94,14.96
-12.47,-3.06,2.94,15.039
-12.47,-3.06,2.94,15.117
-12.47,-3.06,2.94,15.194
-12.47,-3.06,2.94,15.276
-12.47,-3.06,2.94,15.356
-12.47,-3.06,2.94,15.43
-12.84,-4.55,2.35,15.507
-10.97,-3.96,1.57,15.594
-11.4,-2.86,1.63,15.666
-11.4,-2.86,1.63,15.742
-11.4,-2.86,1.63,15.828
-11.4,-2.86,1.63,15.929
-11.4,-2.86,1.63,16.015
-11.4,-2.86,1.63,16.077
-11.4,-2.86,1.63,16.177
-11.4,-2.86,1.63,16.259
-11.06,-2.05,1.37,16.341
-11.09,-1.86,1.1,16.418
-10.64,-0.99,0.52,16.499
-10.64,-0.99,0.52,16.579
-10.64,-0.99,0.52,16.658
-10.64,-0.99,0.52,16.739
-10.64,-0.99,0.52,16.816
-10.64,-0.99,0.52,16.901
-10.64,-0.99,0.52,16.978
-10.64,-0.99,0.52,17.059
-9.94,-0.37,0.97,17.141
-10.04,-0.2,1.05,17.22
-10.51,-0.09,1.31,17.299
-10.51,-0.09,1.31,17.38
-10.51,-0.09,1.31,17.469
-10.51,-0.09,1.31,17.55
-10.51,-0.09,1.31,17.629
-10.51,-0.09,1.31,17.709
-10.51,-0.09,1.31,17.785
-10.51,-0.09,1.31,17.865
-11.01,0.04,0.52,17.92
-11.62,-0.29,0.03,18.026
-11.91,-0.17,-0.54,18.109
-11.91,-0.17,-0.54,18.198
-11.91,-0.17,-0.54,18.277
-11.91,-0.17,-0.54,18.361
-11.91,-0.17,-0.54,18.417
-11.91,-0.17,-0.54,18.528
-11.91,-0.17,-0.54,18.613
-11.91,-0.17,-0.54,18.695
-12.84,-0.63,-0.12,18.778
-13.96,-1.05,0.71,18.852
-13.62,-2.89,1.27,18.929
-13.62,-2.89,1.27,19.018
-13.62,-2.89,1.27,19.106
-13.62,-2.89,1.27,19.188
-13.62,-2.89,1.27,19.507
-13.62,-2.89,1.27,19.611
-13.62,-2.89,1.27,19.626
-13.62,-2.89,1.27,19.636
-13.38,-3.63,0.82,19.693
-11.72,-3.16,0.22,19.7
-12.09,-2.3,0.24,19.754
-12.09,-2.3,0.24,19.834
-12.09,-2.3,0.24,19.913
-12.09,-2.3,0.24,19.969
-12.09,-2.3,0.24,20.078
-12.09,-2.3,0.24,20.161
-12.09,-2.3,0.24,20.219
-12.09,-2.3,0.24,20.303
-11.74,-1.9,0.65,20.386
-11.75,-1.77,0.42,20.447
-11.09,-1.19,-0.17,20.528
-11.09,-1.19,-0.17,20.814
-11.09,-1.19,-0.17,21.012
-11.09,-1.19,-0.17,21.1
-11.09,-1.19,-0.17,21.109
-11.09,-1.19,-0.17,21.195
-11.09,-1.19,-0.17,21.246
-11.09,-1.19,-0.17,21.253
-9.62,-1.44,0.03,21.308
-9.48,-1.28,0.52,21.361
-10.28,-1.29,1.5,21.416
-10.28,-1.29,1.5,21.498
-10.28,-1.29,1.5,21.552
-10.28,-1.29,1.5,21.63
-10.28,-1.29,1.5,21.686
-10.28,-1.29,1.5,21.975
-10.28,-1.29,1.5,22.271
-10.28,-1.29,1.5,22.342
-11.64,-0.55,1.31,22.446
-12.45,-0.21,0.38,22.456
-13.25,-1.36,-0.05,22.462
-13.25,-1.36,-0.05,22.47
-13.25,-1.36,-0.05,22.48
-13.25,-1.36,-0.05,22.536
-13.25,-1.36,-0.05,22.619
-13.25,-1.36,-0.05,22.678
-13.25,-1.36,-0.05,22.757
-13.49,-0.58,0.25,22.809
-12.98,-2.03,1.33,22.911
-11.04,-1.48,1.16,22.968
-11.04,-1.48,1.16,23.069
-11.04,-1.48,1.16,23.187
-11.04,-1.48,1.16,23.261
-11.04,-1.48,1.16,23.343
-11.04,-1.48,1.16,23.401
-11.04,-1.48,1.16,23.482
-11.04,-1.48,1.16,23.541
-10.11,-2.41,1.18,23.624
-10.71,-1.73,0.85,23.71
-10.74,-1.18,0.72,23.797
-10.74,-1.18,0.72,23.887
-10.74,-1.18,0.72,23.971
-10.74,-1.18,0.72,24.028
-10.74,-1.18,0.72,24.087
-10.74,-1.18,0.72,24.171
-10.74,-1.18,0.72,24.278
-10.74,-1.18,0.72,24.365
-10.81,-1.43,0.51,24.45
-10.15,-1.03,0.05,24.536
-10.66,-0.89,-0.24,24.623
-10.66,-0.89,-0.24,24.712
-10.66,-0.89,-0.24,24.771
-10.66,-0.89,-0.24,24.857
-10.66,-0.89,-0.24,24.945
-10.66,-0.89,-0.24,25.034
-10.66,-0.89,-0.24,25.114
-10.66,-0.89,-0.24,25.178
-10.46,-0.95,0.41,25.261
-10.77,-0.75,0.93,25.349
-11.17,-0.73,1.57,25.41
-11.17,-0.73,1.57,25.528
-11.17,-0.73,1.57,25.615
-11.17,-0.73,1.57,25.673
-11.17,-0.73,1.57,25.784
-11.17,-0.73,1.57,25.85
-11.17,-0.73,1.57,25.954
-11.17,-0.73,1.57,26.014
-11.62,-0.01,0.58,26.099
-12,-0.08,0,26.19
-11.92,0.25,-0.42,26.248
-11.92,0.25,-0.42,26.336
-11.92,0.25,-0.42,26.396
-11.92,0.25,-0.42,26.479
-11.92,0.25,-0.42,26.565
-11.92,0.25,-0.42,26.627
-11.92,0.25,-0.42,26.711
-11.92,0.25,-0.42,26.794
-12.6,0,0.26,26.882
-12.3,0.5,0.9,26.942
-13.11,-1.12,2.38,27.024
-13.11,-1.12,2.38,27.109
-13.11,-1.12,2.38,27.199
-13.11,-1.12,2.38,27.292
-13.11,-1.12,2.38,27.381
-13.11,-1.12,2.38,27.439
-13.11,-1.12,2.38,27.524
-13.11,-1.12,2.38,27.615
-12.94,-0.78,1.16,27.702
-14.11,-2.14,0.37,27.759
-12.4,-2.39,-0.5,27.846
-12.4,-2.39,-0.5,27.94
-12.4,-2.39,-0.5,28.027
-12.4,-2.39,-0.5,28.091
-12.4,-2.39,-0.5,28.179
-12.4,-2.39,-0.5,28.267
-12.4,-2.39,-0.5,28.326
-12.4,-2.39,-0.5,28.411
-12.53,-2.33,0.72,28.502
-11.49,-2.85,1.91,28.584
-10.89,-1.87,1.48,28.671
-10.89,-1.87,1.48,28.734
-10.89,-1.87,1.48,28.82
-10.89,-1.87,1.48,28.91
-10.89,-1.87,1.48,28.999
-10.89,-1.87,1.48,29.061
-10.89,-1.87,1.48,29.151
-10.89,-1.87,1.48,29.24
-11.38,-3.82,0.73,29.297
-10.77,-2.89,0.24,29.384
-12.62,-3.32,0.3,29.472
-12.62,-3.32,0.3,29.559
-12.62,-3.32,0.3,29.648
-12.62,-3.32,0.3,29.714
-12.62,-3.32,0.3,29.799
-12.62,-3.32,0.3,29.859
-12.62,-3.32,0.3,29.95
-12.62,-3.32,0.3,30.038
-10.51,-2.04,-0.18,30.127
-11.23,-1.92,-0.71,30.223
-10.29,-1.16,-0.63,30.282
-10.29,-1.16,-0.63,30.368
-10.29,-1.16,-0.63,30.462
-10.29,-1.16,-0.63,30.552
-10.29,-1.16,-0.63,30.615
-10.29,-1.16,-0.63,30.701
-10.29,-1.16,-0.63,30.761
-10.29,-1.16,-0.63,30.846
-12.07,-1.69,0.04,30.941
-11.27,-2.07,-0.03,31.028
-11.19,-2,0.31,31.119
-11.19,-2,0.31,31.183
-11.19,-2,0.31,31.267
-11.19,-2,0.31,31.36
-11.19,-2,0.31,31.423
-11.19,-2,0.31,31.479
-11.19,-2,0.31,31.569
-11.19,-2,0.31,31.665
-10.4,-1.7,0.48,31.762
-10.43,-1.27,0.67,31.824
-10.88,-1.37,-0.1,31.914
-10.88,-1.37,-0.1,31.975
-10.88,-1.37,-0.1,32.062
-10.88,-1.37,-0.1,32.154
-10.88,-1.37,-0.1,32.216
-10.88,-1.37,-0.1,32.305
-10.88,-1.37,-0.1,32.39
-10.88,-1.37,-0.1,32.482
-10.8,-1.4,-0.61,32.542
-10.92,-1.23,-0.29,32.602
-10.15,-1.73,0.89,32.69
-10.15,-1.73,0.89,32.781
-10.15,-1.73,0.89,32.871
-10.15,-1.73,0.89,32.965
-10.15,-1.73,0.89,33.03
-10.15,-1.73,0.89,33.12
-10.15,-1.73,0.89,33.184
-10.15,-1.73,0.89,33.272
-9.92,-1.66,0.98,33.365
-10.3,-1.86,0.35,33.435
-11.11,-1.4,-0.42,33.522
-11.11,-1.4,-0.42,33.614
-11.11,-1.4,-0.42,33.705
-11.11,-1.4,-0.42,33.766
-11.11,-1.4,-0.42,33.852
-11.11,-1.4,-0.42,33.944
-11.11,-1.4,-0.42,34.008
-11.11,-1.4,-0.42,34.101
-11.56,-0.59,-0.67,34.189
-11.01,0.31,0.04,34.25
-10.75,0.65,0.69,34.339
-10.75,0.65,0.69,34.429
-10.75,0.65,0.69,34.519
-10.75,0.65,0.69,34.582
-10.75,0.65,0.69,34.668
-10.75,0.65,0.69,34.734
-10.75,0.65,0.69,34.824
-10.75,0.65,0.69,34.891
-10.34,0.42,1.03,34.951
-10.6,0.01,0.35,35.046
-10.7,-0.08,-0.59,35.141
-10.7,-0.08,-0.59,35.231
-10.7,-0.08,-0.59,35.326
-10.7,-0.08,-0.59,35.425
-10.7,-0.08,-0.59,35.486
-10.7,-0.08,-0.59,35.551
-10.7,-0.08,-0.59,35.611
-10.7,-0.08,-0.59,35.701
-10.64,-0.26,-0.21,35.788
-10.54,-0.12,0.25,35.88
-11.39,-0.04,1.02,35.971
-11.39,-0.04,1.02,36.037
-11.39,-0.04,1.02,36.125
-11.39,-0.04,1.02,36.226
-11.39,-0.04,1.02,36.29
-11.39,-0.04,1.02,36.356
-11.39,-0.04,1.02,36.443
-11.39,-0.04,1.02,36.535
-11.82,0.31,0.8,36.6
-12.53,0.16,0.42,36.687
-12.54,0.14,-0.63,36.783
-12.54,0.14,-0.63,36.849
-12.54,0.14,-0.63,36.941
-12.54,0.14,-0.63,37
-12.54,0.14,-0.63,37.09
-12.54,0.14,-0.63,37.185
-12.54,0.14,-0.63,37.244
-12.54,0.14,-0.63,37.337
-12.92,0.03,-0.43,37.43
-12.68,0.78,0.2,37.528
-13.1,-0.78,2.03,37.593
-13.1,-0.78,2.03,37.685
-13.1,-0.78,2.03,37.745
-13.1,-0.78,2.03,37.838
-13.1,-0.78,2.03,37.899
-13.1,-0.78,2.03,37.993
-13.1,-0.78,2.03,38.056
-13.1,-0.78,2.03,38.152
-12.94,-0.73,1.66,38.211
-13.77,-1.46,0.92,38.303
-13.55,-0.47,-0.69,38.395
-13.55,-0.47,-0.69,38.488
-13.55,-0.47,-0.69,38.551
-13.55,-0.47,-0.69,38.642
-13.55,-0.47,-0.69,38.706
-13.55,-0.47,-0.69,38.801
-13.55,-0.47,-0.69,38.866
-13.55,-0.47,-0.69,38.958
-13.89,-0.35,-0.25,39.056
-13.56,-0.38,0.75,39.121
-13,-1.11,1.95,39.182
-13,-1.11,1.95,39.274
-13,-1.11,1.95,39.337
-13,-1.11,1.95,39.424
-13,-1.11,1.95,39.524
-13,-1.11,1.95,39.59
-13,-1.11,1.95,39.654
-13,-1.11,1.95,39.75
-12.51,-1.18,1.02,39.845
-12.91,-2.25,0.26,39.946
-12.03,-2.42,-0.89,40.042
-12.03,-2.42,-0.89,40.105
-12.03,-2.42,-0.89,40.166
-12.03,-2.42,-0.89,40.261
-12.03,-2.42,-0.89,40.335
-12.03,-2.42,-0.89,40.397
-12.03,-2.42,-0.89,40.489
-12.03,-2.42,-0.89,40.587
-13.6,-4.45,0.81,40.679
-11.4,-4.69,0.9,40.744
-11.91,-3.94,1.18,40.842
-11.91,-3.94,1.18,40.911
-11.91,-3.94,1.18,40.973
-11.91,-3.94,1.18,41.034
-11.91,-3.94,1.18,41.134
-11.91,-3.94,1.18,41.229
-11.91,-3.94,1.18,41.302
-11.91,-3.94,1.18,41.395
-9.51,-2.65,0.46,41.495
-11.13,-2.24,0.82,41.559
-11.05,-1.69,0.5,41.625
-11.05,-1.69,0.5,41.715
-11.05,-1.69,0.5,41.815
-11.05,-1.69,0.5,41.904
-11.05,-1.69,0.5,41.968
-11.05,-1.69,0.5,42.032
-11.05,-1.69,0.5,42.125
-11.05,-1.69,0.5,42.224
-11.95,-1.7,0.34,42.295
-11.01,-1.2,0.21,42.391
-10.88,-0.97,0,42.458
-10.88,-0.97,0,42.523
-10.88,-0.97,0,42.621
-10.88,-0.97,0,42.687
-10.88,-0.97,0,42.752
-10.88,-0.97,0,42.847
-10.88,-0.97,0,42.919
-10.88,-0.97,0,43.015
-10.23,-0.14,-0.12,43.08
-10.06,-0.42,0.46,43.144
-10.63,-0.34,1.05,43.239
-10.63,-0.34,1.05,43.331
-10.63,-0.34,1.05,43.403
-10.63,-0.34,1.05,43.501
-10.63,-0.34,1.05,43.594
-10.63,-0.34,1.05,43.666
-10.63,-0.34,1.05,43.734
-10.63,-0.34,1.05,43.831
-11.3,-0.85,1.03,43.928
-12.45,0,0.05,44.001
-12.75,-0.72,-0.55,44.068
-12.75,-0.72,-0.55,44.135
-12.75,-0.72,-0.55,44.196
-12.75,-0.72,-0.55,44.296
-12.75,-0.72,-0.55,44.395
-12.75,-0.72,-0.55,44.469
-12.75,-0.72,-0.55,44.536
-12.75,-0.72,-0.55,44.598
-13.74,-1.37,0.24,44.697
-12.79,-3.2,0.61,44.792
-11.94,-3.61,1.18,44.887
-11.94,-3.61,1.18,44.948
-11.94,-3.61,1.18,45.011
-11.94,-3.61,1.18,45.108
-11.94,-3.61,1.18,45.208
-11.94,-3.61,1.18,45.267
-11.94,-3.61,1.18,45.368
-11.94,-3.61,1.18,45.439
-11.15,-3.39,0.39,45.501
-11.11,-2.55,-0.2,45.597
-10.8,-1.75,0.13,45.675
-10.8,-1.75,0.13,45.772
-10.8,-1.75,0.13,45.84
-10.8,-1.75,0.13,45.937
-10.8,-1.75,0.13,46.008
-10.8,-1.75,0.13,46.073
-10.8,-1.75,0.13,46.172
-10.8,-1.75,0.13,46.24
-10.09,-1.01,-0.71,46.305
-10.29,0.04,-1.02,46.403
-10.96,0.71,-1.6,46.464
-10.96,0.71,-1.6,46.559
-10.96,0.71,-1.6,46.654
-10.96,0.71,-1.6,46.741
-10.96,0.71,-1.6,46.838
-10.96,0.71,-1.6,46.908
-10.96,0.71,-1.6,47.007
-10.96,0.71,-1.6,47.077
-10.97,0.77,-0.75,47.144
-11.85,0.47,-0.08,47.239
-11.87,0.69,-0.05,47.308
-11.87,0.69,-0.05,47.372
-11.87,0.69,-0.05,47.471
-11.87,0.69,-0.05,47.571
-11.87,0.69,-0.05,47.64
-11.87,0.69,-0.05,47.733
-11.87,0.69,-0.05,47.799
-11.87,0.69,-0.05,47.866
-12.41,0.08,-0.38,47.968
-12.21,0.13,-1.11,48.037
-12.87,-2.09,-1.06,48.136
-12.87,-2.09,-1.06,48.205
-12.87,-2.09,-1.06,48.269
-12.87,-2.09,-1.06,48.336
-12.87,-2.09,-1.06,48.435
-12.87,-2.09,-1.06,48.532
-12.87,-2.09,-1.06,48.639
-12.87,-2.09,-1.06,48.706
-14.41,-2.88,0.37,48.773
-13.04,-4.34,1.54,48.842
-12.71,-3.75,1.79,48.942
-12.71,-3.75,1.79,49.012
-12.71,-3.75,1.79,49.082
-12.71,-3.75,1.79,49.147
-12.71,-3.75,1.79,49.247
-12.71,-3.75,1.79,49.351
-12.71,-3.75,1.79,49.419
-12.71,-3.75,1.79,49.482
-10.71,-2.64,1.15,49.55
-11.68,-2.01,1.02,49.65
-10.68,-1.74,0.58,49.753
-10.68,-1.74,0.58,49.82
-10.68,-1.74,0.58,49.887
-10.68,-1.74,0.58,49.982
-10.68,-1.74,0.58,50.081
-10.68,-1.74,0.58,50.153
-10.68,-1.74,0.58,50.221
-10.68,-1.74,0.58,50.288
-11.04,-2.04,0.26,50.392
-10.64,-1.63,-0.22,50.461
-10.89,-0.93,-0.46,50.564
-10.89,-0.93,-0.46,50.636
-10.89,-0.93,-0.46,50.704
-10.89,-0.93,-0.46,50.77
-10.89,-0.93,-0.46,50.867
-10.89,-0.93,-0.46,50.937
-10.89,-0.93,-0.46,51.035
-10.89,-0.93,-0.46,51.099
-10.32,-0.69,-0.2,51.198
-10.34,-0.63,0.68,51.271
-10.53,-0.44,1.31,51.341
-10.53,-0.44,1.31,51.441
-10.53,-0.44,1.31,51.515
-10.53,-0.44,1.31,51.612
-10.53,-0.44,1.31,51.686
-10.53,-0.44,1.31,51.789
-10.53,-0.44,1.31,51.859
-10.53,-0.44,1.31,51.924
-11.1,-0.47,0.61,52.032
-11.4,-0.71,-0.03,52.11
-11.9,-1.11,-0.58,52.177
-11.9,-1.11,-0.58,52.249
-11.9,-1.11,-0.58,52.318
-11.9,-1.11,-0.58,52.43
-11.9,-1.11,-0.58,52.499
-11.9,-1.11,-0.58,52.561
-11.9,-1.11,-0.58,52.657
-11.9,-1.11,-0.58,52.769
-11.64,-0.78,-0.22,52.843
-12.38,-0.16,0.01,52.911
-12.06,0.63,0.51,52.98
-12.06,0.63,0.51,53.045
-12.06,0.63,0.51,53.147
-12.06,0.63,0.51,53.215
-12.06,0.63,0.51,53.321
-12.06,0.63,0.51,53.395
-12.06,0.63,0.51,53.502
-12.06,0.63,0.51,53.574
-12.64,0.16,0.25,53.644
-12.51,0.56,-0.38,53.716
-13.22,-0.78,-0.46,53.785
-13.22,-0.78,-0.46,53.891
-13.22,-0.78,-0.46,53.963
-13.22,-0.78,-0.46,54.034
-13.22,-0.78,-0.46,54.104
-13.22,-0.78,-0.46,54.175
-13.22,-0.78,-0.46,54.28
-13.22,-0.78,-0.46,54.355
-12.96,0.03,-0.24,54.426
-13.57,-1.65,1.48,54.498
-11.73,-2.48,1.71,54.6
-11.73,-2.48,1.71,54.675
-11.73,-2.48,1.71,54.779
-11.73,-2.48,1.71,54.79
-11.73,-2.48,1.71,54.895
-11.73,-2.48,1.71,55.008
-11.73,-2.48,1.71,55.078
-11.73,-2.48,1.71,55.18
-12.72,-4.5,1.39,55.253
-10.37,-4.88,0.41,55.323
-11.75,-3.92,0.37,55.429
-11.75,-3.92,0.37,55.501
-11.75,-3.92,0.37,55.571
-11.75,-3.92,0.37,55.641
-11.75,-3.92,0.37,55.743
-11.75,-3.92,0.37,55.81
-11.75,-3.92,0.37,55.878
-11.75,-3.92,0.37,55.946
-9.14,-3.66,0.89,56.05
-10.63,-2.25,0.99,56.155
-9.17,-2.72,1.33,56.219
-9.17,-2.72,1.33,56.287
-9.17,-2.72,1.33,56.394
-9.17,-2.72,1.33,56.464
-9.17,-2.72,1.33,56.567
-9.17,-2.72,1.33,56.639
-9.17,-2.72,1.33,56.706
-9.17,-2.72,1.33,56.776
-10.45,-2.11,1.53,56.881
-10.36,-3.13,1.15,56.956
-11.11,-2.85,0.65,57.023
-11.11,-2.85,0.65,57.132
-11.11,-2.85,0.65,57.2
-11.11,-2.85,0.65,57.266
-11.11,-2.85,0.65,57.371
-11.11,-2.85,0.65,57.443
-11.11,-2.85,0.65,57.509
-11.11,-2.85,0.65,57.578
-11.38,-3.06,0.16,57.675
-10.77,-2.73,0.42,57.741
-10.85,-2.12,0.24,57.839
-10.85,-2.12,0.24,57.925
-10.85,-2.12,0.24,58.017
-10.85,-2.12,0.24,58.118
-10.85,-2.12,0.24,58.128
-10.85,-2.12,0.24,58.223
-10.85,-2.12,0.24,58.323
-10.85,-2.12,0.24,58.381
-10.07,-2.25,-0.55,58.466
-9.99,-1.79,-0.3,58.557
-9.81,-1.91,0.44,58.622
-9.81,-1.91,0.44,58.716
-9.81,-1.91,0.44,58.784
-9.81,-1.91,0.44,58.895
-9.81,-1.91,0.44,59.003
-9.81,-1.91,0.44,59.076
-9.81,-1.91,0.44,59.145
-9.81,-1.91,0.44,59.215
-9.99,-1.8,1.23,59.287
-10.46,-1.87,0.21,59.392
-11.07,-2.09,-0.44,59.467
-11.07,-2.09,-0.44,59.573
-11.07,-2.09,-0.44,59.659
-11.07,-2.09,-0.44,59.728
-11.07,-2.09,-0.44,59.798
-11.07,-2.09,-0.44,59.864
-11.07,-2.09,-0.44,59.933
-11.07,-2.09,-0.44,60.038
-11.11,-1.94,-0.16,60.109
-11.15,-2.22,0.38,60.181
-11.05,-2.82,1.14,60.284
-11.05,-2.82,1.14,60.359
-11.05,-2.82,1.14,60.437
-11.05,-2.82,1.14,60.512
-11.05,-2.82,1.14,60.621
-11.05,-2.82,1.14,60.699
-11.05,-2.82,1.14,60.77
-11.05,-2.82,1.14,60.842
-10.45,-2.69,0.9,60.953
-10.46,-2.47,1.06,60.964
-9.69,-1.92,0.73,61.072
-9.69,-1.92,0.73,61.145
-9.69,-1.92,0.73,61.249
-9.69,-1.92,0.73,61.322
-9.69,-1.92,0.73,61.389
-9.69,-1.92,0.73,61.491
-9.69,-1.92,0.73,61.599
-9.69,-1.92,0.73,61.671
-10.23,-1.84,0.76,61.739
-9.78,-1.22,1.29,61.81
-9.74,-0.9,1.94,61.88
-9.74,-0.9,1.94,61.994
-9.74,-0.9,1.94,62.061
-9.74,-0.9,1.94,62.136
-9.74,-0.9,1.94,62.206
-9.74,-0.9,1.94,62.278
-9.74,-0.9,1.94,62.389
-9.74,-0.9,1.94,62.461
-10.09,-0.33,1.86,62.533
-10.3,-0.67,1.31,62.64
-10.59,-0.25,0.51,62.705
-10.59,-0.25,0.51,62.775
-10.59,-0.25,0.51,62.848
-10.59,-0.25,0.51,62.958
-10.59,-0.25,0.51,63.036
