NAME:,walk_4_1.csv,,,,,,,,,,,,,
EXPERIMENT TIME:,06/06/2023 11:54,,,,,,,,,,,,,
ACTIVITY TYPE:,Walking,,,,,,,,,,,,,
COUNT OF ACTUAL STEPS:,90,,,,,,,,,,,,,
,,,,,,,,,,,,,,
Time [sec],ACC X,ACC Y,ACC Z,,,,,,,,,,,
264542,-10.15969,-1.647517,0.313813,,,,,,,,,,,
264623,-10.15969,-1.490611,0.274586,,,,,,,,,,,
264704,-10.04201,-1.412158,0.392266,,,,,,,,,,,
264785,-10.355823,-1.96133,0.274586,,,,,,,,,,,
264866,-10.081236,-1.294478,0.23536,,,,,,,,,,,
264947,-9.845878,-1.922104,0.470719,,,,,,,,,,,
265028,-9.885103,-2.039783,0.902212,,,,,,,,,,,
265109,-9.688971,-1.725971,1.059118,,,,,,,,,,,
265190,-10.081236,-2.19669,0.941438,,,,,,,,,,,
265271,-9.963557,-1.647517,0.627626,,,,,,,,,,,
265352,-9.610518,-1.647517,-0.039227,,,,,,,,,,,
265433,-10.944222,-0.509946,-0.196133,,,,,,,,,,,
265514,-10.74809,-1.725971,-0.274586,,,,,,,,,,,
265595,-10.355823,-1.294478,-0.549172,,,,,,,,,,,
265676,-10.355823,-1.019892,-0.784532,,,,,,,,,,,
265757,-10.081236,-1.372931,-0.431493,,,,,,,,,,,
265838,-10.355823,-1.176798,-0.549172,,,,,,,,,,,
265919,-12.513286,-0.039227,0.627626,,,,,,,,,,,
266000,-11.846434,-2.07901,-2.628182,,,,,,,,,,,
266081,-10.787315,-5.217138,1.216025,,,,,,,,,,,
266162,-9.767424,-1.647517,0.666852,,,,,,,,,,,
266243,-8.43372,-1.725971,0.902212,,,,,,,,,,,
266324,-7.609961,-0.823759,2.118237,,,,,,,,,,,
266405,-6.903882,1.176798,2.31437,,,,,,,,,,,
266486,-13.572405,-2.471276,-0.784532,,,,,,,,,,,
266567,-13.297818,0.392266,3.80498,,,,,,,,,,,
266648,-10.120463,-5.609404,1.804424,,,,,,,,,,,
266729,-8.08068,-0.862985,-0.392266,,,,,,,,,,,
266810,-9.767424,-3.530394,1.372931,,,,,,,,,,,
266891,-8.786758,-0.627626,-0.353039,,,,,,,,,,,
266972,-9.610518,-0.666852,0.11768,,,,,,,,,,,
267053,-9.885103,-1.451384,-0.353039,,,,,,,,,,,
267134,-11.650301,-2.275143,-0.431493,,,,,,,,,,,
267215,-14.160804,-1.882877,1.608291,,,,,,,,,,,
267296,-9.924331,-3.608848,-2.628182,,,,,,,,,,,
267377,-10.983448,-5.177911,2.31437,,,,,,,,,,,
267458,-9.218252,0.745305,-0.039227,,,,,,,,,,,
267539,-6.786202,-0.588399,1.412158,,,,,,,,,,,
267620,-5.687858,0.039227,2.902768,,,,,,,,,,,
267701,-8.198359,0.078453,-1.608291,,,,,,,,,,,
267782,-12.081794,-1.294478,4.942552,,,,,,,,,,,
267863,-10.708862,-2.745862,1.255251,,,,,,,,,,,
267944,-9.139798,-1.059118,-0.941438,,,,,,,,,,,
268835,-7.178468,1.137571,1.569064,,,,,,,,,,,
269726,-11.924888,-5.256365,1.96133,,,,,,,,,,,
269807,-9.845878,0.156906,-0.313813,,,,,,,,,,,
270779,-15.494508,-3.177355,0.470719,,,,,,,,,,,
270860,-8.786758,-4.354153,-0.353039,,,,,,,,,,,
270941,-10.904996,-1.765197,1.059118,,,,,,,,,,,
271022,-8.43372,0.862985,0.274586,,,,,,,,,,,
271103,-5.76631,0.078453,1.529837,,,,,,,,,,,
271184,-6.982335,-0.745305,3.177355,,,,,,,,,,,
271265,-11.767981,-0.823759,-1.176798,,,,,,,,,,,
271346,-14.592296,0.706079,3.098902,,,,,,,,,,,
271427,-9.80665,-4.903325,1.529837,,,,,,,,,,,
271508,-7.453054,-1.019892,-0.313813,,,,,,,,,,,
271589,-9.963557,-3.451941,0.23536,,,,,,,,,,,
271670,-8.43372,-0.784532,-0.274586,,,,,,,,,,,
271751,-9.728197,-0.745305,-0.784532,,,,,,,,,,,
271832,-9.688971,-2.07901,1.372931,,,,,,,,,,,
271913,-11.179583,0.11768,1.84365,,,,,,,,,,,
271994,-12.277926,-3.020448,-3.334261,,,,,,,,,,,
272075,-10.198917,-5.374045,2.000557,,,,,,,,,,,
272156,-9.218252,1.059118,-0.549172,,,,,,,,,,,
272237,-7.021562,-0.706079,1.176798,,,,,,,,,,,
272318,-6.315483,-0.706079,2.471276,,,,,,,,,,,
272399,-7.413828,-0.313813,1.84365,,,,,,,,,,,
272480,-13.493951,-3.491168,2.902768,,,,,,,,,,,
272561,-10.04201,0.23536,0.431493,,,,,,,,,,,
272642,-7.060789,-0.666852,0,,,,,,,,,,,
272723,-10.904996,-5.021005,0.823759,,,,,,,,,,,
272804,-8.394493,-0.588399,-0.509946,,,,,,,,,,,
272885,-9.179025,-1.137571,0.156906,,,,,,,,,,,
272966,-8.786758,-1.372931,0.470719,,,,,,,,,,,
273047,-12.59174,0.980665,-1.019892,,,,,,,,,,,
273128,-13.650858,-3.255808,-0.196133,,,,,,,,,,,
273209,-10.904996,-5.413271,1.216025,,,,,,,,,,,
273290,-9.571291,1.216025,-0.196133,,,,,,,,,,,
273371,-7.963,-0.902212,0.706079,,,,,,,,,,,
273452,-6.23703,-1.569064,2.863542,,,,,,,,,,,
273533,-6.550843,2.19669,1.255251,,,,,,,,,,,
273614,-20.005568,-4.824872,5.962444,,,,,,,,,,,
273695,-13.062458,-0.431493,0.980665,,,,,,,,,,,
273776,-6.040897,-3.334261,1.608291,,,,,,,,,,,
273857,-10.002784,-2.039783,1.333704,,,,,,,,,,,
273938,-8.551399,-2.275143,-0.274586,,,,,,,,,,,
274019,-8.629852,0.196133,-0.039227,,,,,,,,,,,
274100,-10.120463,-0.902212,0,,,,,,,,,,,
274181,-12.277926,0.666852,-0.588399,,,,,,,,,,,
274262,-15.219921,-4.118793,0.039227,,,,,,,,,,,
274343,-11.689528,-6.11935,0.588399,,,,,,,,,,,
274424,-9.610518,-2.157463,0.470719,,,,,,,,,,,
274505,-8.472946,0.11768,0.784532,,,,,,,,,,,
274586,-6.00167,-1.137571,2.432049,,,,,,,,,,,
274667,-6.511616,1.019892,2.510503,,,,,,,,,,,
274748,-20.005568,-5.256365,2.941995,,,,,,,,,,,
274829,-13.101686,0.902212,3.608848,,,,,,,,,,,
274910,-7.649188,-4.628739,0.156906,,,,,,,,,,,
274991,-8.08068,0.706079,-0.156906,,,,,,,,,,,
275072,-9.257479,-2.510503,0.039227,,,,,,,,,,,
275153,-7.806094,-0.588399,-0.196133,,,,,,,,,,,
275234,-10.081236,-0.627626,-0.431493,,,,,,,,,,,
275315,-10.826543,-1.176798,0.823759,,,,,,,,,,,
275396,-12.827099,-0.980665,2.392823,,,,,,,,,,,
275477,-9.335931,-4.432606,-2.000557,,,,,,,,,,,
275558,-12.199473,-4.471833,2.039783,,,,,,,,,,,
275639,-8.786758,0.039227,-0.078453,,,,,,,,,,,
275720,-5.452498,-0.274586,0.627626,,,,,,,,,,,
275801,-7.178468,-0.549172,2.824315,,,,,,,,,,,
275882,-6.393936,1.294478,-1.255251,,,,,,,,,,,
275963,-12.395606,-1.255251,3.138128,,,,,,,,,,,
276044,-11.650301,-3.844207,0.784532,,,,,,,,,,,
276607,-5.452498,-0.274586,0.627626,,,,,,,,,,,
277031,-7.178468,-0.549172,2.824315,,,,,,,,,,,
277207,-6.393936,1.294478,-1.255251,,,,,,,,,,,
277983,-12.395606,-1.255251,3.138128,,,,,,,,,,,
278103,-11.650301,-3.844207,0.784532,,,,,,,,,,,
278134,-5.452498,-0.274586,0.627626,,,,,,,,,,,
278209,-7.178468,-0.549172,2.824315,,,,,,,,,,,
278262,-6.393936,1.294478,-1.255251,,,,,,,,,,,
278310,-12.395606,-1.255251,3.138128,,,,,,,,,,,
278355,-11.650301,-3.844207,0.784532,,,,,,,,,,,
278622,-8.002227,-1.529837,0.274586,,,,,,,,,,,
278703,-9.022119,-0.11768,-0.156906,,,,,,,,,,,
279594,-6.707749,-1.216025,-0.509946,,,,,,,,,,,
279675,-9.688971,-4.667965,1.372931,,,,,,,,,,,
279756,-8.394493,-1.412158,-0.509946,,,,,,,,,,,
279837,-9.532064,0.11768,-0.078453,,,,,,,,,,,
279918,-9.453611,-0.745305,0.549172,,,,,,,,,,,
279999,-12.35638,0.588399,-1.451384,,,,,,,,,,,
280080,-15.063015,-2.824315,0.509946,,,,,,,,,,,
280161,-9.885103,-5.256365,0.078453,,,,,,,,,,,
280242,-11.611073,-2.31437,0.509946,,,,,,,,,,,
280323,-8.276814,0.745305,0.23536,,,,,,,,,,,
280404,-5.295591,-0.627626,1.765197,,,,,,,,,,,
280485,-7.060789,0.745305,2.432049,,,,,,,,,,,
280566,-20.005568,-5.687858,4.393379,,,,,,,,,,,
280647,-12.081794,2.353596,1.804424,,,,,,,,,,,
280728,-7.649188,-5.021005,0.078453,,,,,,,,,,,
280809,-8.159133,0.509946,0.11768,,,,,,,,,,,
280890,-9.375158,-2.588956,-0.627626,,,,,,,,,,,
280971,-7.963,-0.11768,-0.039227,,,,,,,,,,,
281052,-10.04201,-0.431493,-0.627626,,,,,,,,,,,
281133,-10.473503,-1.765197,0.549172,,,,,,,,,,,
281214,-13.886217,-1.176798,2.31437,,,,,,,,,,,
281295,-10.316596,-4.15802,-2.275143,,,,,,,,,,,
281376,-10.865768,-5.060232,2.510503,,,,,,,,,,,
281457,-10.39505,0.313813,-0.353039,,,,,,,,,,,
281538,-5.452498,0.156906,0.784532,,,,,,,,,,,
281619,-6.197803,-0.313813,2.471276,,,,,,,,,,,
281700,-7.570734,0.588399,-0.470719,,,,,,,,,,,
281781,-13.101686,-2.118237,3.412714,,,,,,,,,,,
281862,-11.924888,-4.197247,1.608291,,,,,,,,,,,
281943,-7.884547,-1.216025,-0.784532,,,,,,,,,,,
282024,-10.591183,-4.393379,1.294478,,,,,,,,,,,
282105,-7.727641,-1.137571,0.156906,,,,,,,,,,,
282186,-9.179025,-0.313813,-0.196133,,,,,,,,,,,
282267,-9.924331,-0.627626,0.078453,,,,,,,,,,,
282348,-12.59174,0.353039,-1.176798,,,,,,,,,,,
282429,-13.925444,-2.31437,-0.23536,,,,,,,,,,,
282510,-10.787315,-5.88399,0.23536,,,,,,,,,,,
282591,-10.434276,-2.19669,0.784532,,,,,,,,,,,
282672,-8.355267,-0.156906,-0.039227,,,,,,,,,,,
282753,-5.452498,-0.862985,1.804424,,,,,,,,,,,
282834,-6.746975,1.137571,2.392823,,,,,,,,,,,
282915,-20.005568,-4.589512,3.726527,,,,,,,,,,,
282996,-13.297818,1.882877,3.020448,,,,,,,,,,,
283077,-8.276814,-4.981779,0.23536,,,,,,,,,,,
283158,-8.002227,1.059118,0.196133,,,,,,,,,,,
283239,-9.375158,-2.31437,-0.549172,,,,,,,,,,,
283320,-7.492281,-0.549172,0.196133,,,,,,,,,,,
283401,-10.04201,-0.078453,-0.392266,,,,,,,,,,,
283482,-10.904996,-0.941438,0.313813,,,,,,,,,,,
283563,-14.631523,-2.039783,1.098345,,,,,,,,,,,
283644,-10.51273,-4.511059,-2.118237,,,,,,,,,,,
283725,-11.493395,-4.746419,2.157463,,,,,,,,,,,
283806,-9.845878,0.039227,-0.588399,,,,,,,,,,,
283887,-5.491724,-0.588399,0.745305,,,,,,,,,,,
283968,-5.687858,0.156906,2.510503,,,,,,,,,,,
284049,-7.453054,0.941438,-0.745305,,,,,,,,,,,
284130,-11.336488,-0.509946,3.530394,,,,,,,,,,,
284211,-12.748646,-5.256365,-0.039227,,,,,,,,,,,
284292,-8.002227,-0.902212,0.11768,,,,,,,,,,,
284373,-10.473503,-3.020448,0.196133,,,,,,,,,,,
284454,-7.256921,-0.941438,0.078453,,,,,,,,,,,
284535,-8.865212,-0.980665,0.078453,,,,,,,,,,,
284616,-10.591183,-2.275143,0.902212,,,,,,,,,,,
284697,-12.160246,0.745305,2.471276,,,,,,,,,,,
284778,-10.081236,-3.138128,-3.138128,,,,,,,,,,,
285507,-10.944222,-4.589512,0.706079,,,,,,,,,,,
285588,-7.531507,-1.922104,-0.11768,,,,,,,,,,,
286398,-18.554182,-4.942552,5.413271,,,,,,,,,,,
286479,-12.59174,-0.980665,0.941438,,,,,,,,,,,
287451,-6.354709,1.451384,0.509946,,,,,,,,,,,
287937,-8.551399,0.470719,-0.392266,,,,,,,,,,,
288018,-9.80665,-0.549172,-0.23536,,,,,,,,,,,
288099,-11.258035,-2.432049,0.706079,,,,,,,,,,,
288180,-15.102242,-2.628182,1.255251,,,,,,,,,,,
288261,-8.904439,-3.844207,-2.039783,,,,,,,,,,,
288342,-11.611073,-5.727084,1.96133,,,,,,,,,,,
288423,-9.610518,0.274586,0.11768,,,,,,,,,,,
288504,-6.158576,-0.078453,0.549172,,,,,,,,,,,
288585,-6.629296,-0.039227,2.745862,,,,,,,,,,,
288666,-9.414385,0.039227,-0.039227,,,,,,,,,,,
288747,-13.062458,-1.176798,3.726527,,,,,,,,,,,
288828,-10.904996,-5.727084,1.019892,,,,,,,,,,,
288909,-8.276814,-0.078453,-0.549172,,,,,,,,,,,
288990,-9.924331,-3.569621,0.196133,,,,,,,,,,,
289071,-7.453054,-1.725971,0.23536,,,,,,,,,,,
289152,-9.532064,-0.470719,-0.627626,,,,,,,,,,,
289233,-10.081236,-0.980665,1.098345,,,,,,,,,,,
289314,-12.395606,0.11768,1.725971,,,,,,,,,,,
289395,-10.904996,-4.707192,-2.275143,,,,,,,,,,,
289476,-11.53262,-5.413271,2.31437,,,,,,,,,,,
289557,-9.728197,1.372931,-0.862985,,,,,,,,,,,
289638,-6.590069,-0.862985,0.980665,,,,,,,,,,,
289719,-6.511616,-0.823759,2.745862,,,,,,,,,,,
289800,-6.197803,1.608291,1.882877,,,,,,,,,,,
289881,-14.709976,-2.902768,4.589512,,,,,,,,,,,
289962,-13.415498,0.941438,-0.823759,,,,,,,,,,,
290043,-7.178468,-3.177355,0.980665,,,,,,,,,,,
290124,-11.179583,-3.059675,0.980665,,,,,,,,,,,
290205,-7.727641,-2.157463,-0.509946,,,,,,,,,,,
290286,-8.276814,-0.980665,0.039227,,,,,,,,,,,
290367,-9.532064,-0.313813,0.509946,,,,,,,,,,,
290448,-12.199473,1.451384,-1.608291,,,,,,,,,,,
290529,-13.61163,-3.608848,-0.196133,,,,,,,,,,,
290610,-10.63041,-6.11935,-0.039227,,,,,,,,,,,
290691,-10.198917,-1.569064,0.509946,,,,,,,,,,,
290772,-8.198359,0,1.019892,,,,,,,,,,,
290853,-5.805537,-0.862985,2.039783,,,,,,,,,,,
290934,-6.629296,1.137571,1.294478,,,,,,,,,,,
291015,-20.005568,-6.00167,5.099459,,,,,,,,,,,
291096,-13.454725,3.92266,2.549729,,,,,,,,,,,
291177,-7.021562,-5.88399,0.862985,,,,,,,,,,,
291258,-9.296705,0.627626,-0.274586,,,,,,,,,,,
291339,-8.825986,-3.255808,-0.078453,,,,,,,,,,,
291420,-8.119907,-0.039227,-0.509946,,,,,,,,,,,
291501,-9.728197,0.11768,-0.353039,,,,,,,,,,,
291582,-11.454168,-1.412158,1.490611,,,,,,,,,,,
291663,-14.827656,-1.059118,1.216025,,,,,,,,,,,
291744,-9.022119,-5.76631,-1.216025,,,,,,,,,,,
291825,-11.650301,-4.471833,1.882877,,,,,,,,,,,
291906,-10.081236,1.255251,-0.392266,,,,,,,,,,,
291987,-5.491724,0,0.274586,,,,,,,,,,,
292068,-7.139242,0.039227,3.216581,,,,,,,,,,,
292149,-8.198359,-0.862985,0.706079,,,,,,,,,,,
292230,-13.376271,-0.274586,3.569621,,,,,,,,,,,
292311,-10.63041,-4.628739,1.372931,,,,,,,,,,,
292392,-8.629852,-0.706079,-0.666852,,,,,,,,,,,
292473,-9.924331,-3.569621,0.274586,,,,,,,,,,,
292554,-7.374601,-1.490611,0.353039,,,,,,,,,,,
292635,-9.963557,-0.470719,-0.666852,,,,,,,,,,,
292716,-9.845878,-0.784532,1.255251,,,,,,,,,,,
292797,-11.611073,-0.196133,2.118237,,,,,,,,,,,
292878,-10.198917,-3.765754,-2.667409,,,,,,,,,,,
292959,-12.513286,-6.00167,2.667409,,,,,,,,,,,
293040,-9.963557,0.666852,-0.706079,,,,,,,,,,,
293121,-6.197803,-0.11768,0.784532,,,,,,,,,,,
293769,-9.022119,-1.176798,0.706079,,,,,,,,,,,
293850,-9.885103,-0.666852,0.23536,,,,,,,,,,,
293931,-12.434833,-0.196133,-1.255251,,,,,,,,,,,
294012,-14.749203,-2.471276,-0.509946,,,,,,,,,,,
294093,-9.728197,-5.805537,0.039227,,,,,,,,,,,
294174,-10.591183,-1.529837,0,,,,,,,,,,,
294255,-8.08068,-0.039227,0.392266,,,,,,,,,,,
294336,-5.217138,-0.902212,2.31437,,,,,,,,,,,
294417,-6.629296,1.255251,1.333704,,,,,,,,,,,
294498,-20.005568,-5.413271,4.864099,,,,,,,,,,,
294579,-12.2387,2.275143,2.510503,,,,,,,,,,,
294660,-8.551399,-4.354153,0.11768,,,,,,,,,,,
294741,-8.159133,-0.196133,0.941438,,,,,,,,,,,
294822,-8.551399,-1.882877,-0.470719,,,,,,,,,,,
294903,-7.806094,-0.392266,0.23536,,,,,,,,,,,
294984,-10.04201,-0.196133,0,,,,,,,,,,,
295065,-12.081794,-1.372931,-0.23536,,,,,,,,,,,
295146,-15.416055,-2.392823,0.509946,,,,,,,,,,,
295227,-9.728197,-5.413271,-0.509946,,,,,,,,,,,
295308,-11.258035,-3.059675,0.823759,,,,,,,,,,,
295389,-9.296705,-0.078453,0.039227,,,,,,,,,,,
295470,-6.393936,-0.353039,1.255251,,,,,,,,,,,
295551,-5.923217,0.784532,2.824315,,,,,,,,,,,
295632,-7.727641,-0.706079,-1.922104,,,,,,,,,,,
295713,-12.12102,-1.412158,3.961887,,,,,,,,,,,
295794,-14.121577,-4.903325,0.980665,,,,,,,,,,,
295875,-8.31604,-0.862985,-0.745305,,,,,,,,,,,
295956,-8.590626,-3.216581,0.11768,,,,,,,,,,,
296037,-7.688414,-1.725971,0.392266,,,,,,,,,,,
296118,-9.924331,-0.666852,-0.039227,,,,,,,,,,,
296199,-9.688971,-0.823759,1.686744,,,,,,,,,,,
296280,-12.47406,0.392266,2.31437,,,,,,,,,,,
296361,-9.688971,-3.883434,-1.96133,,,,,,,,,,,
296442,-12.47406,-4.981779,1.686744,,,,,,,,,,,
296523,-10.04201,0.313813,0.196133,,,,,,,,,,,
296604,-5.609404,-0.431493,0.823759,,,,,,,,,,,
296685,-6.158576,0.039227,2.549729,,,,,,,,,,,
296766,-8.590626,1.333704,-0.823759,,,,,,,,,,,
296847,-11.454168,-1.333704,4.079566,,,,,,,,,,,
296928,-10.983448,-2.745862,-0.156906,,,,,,,,,,,
297009,-8.904439,-0.509946,-0.509946,,,,,,,,,,,
297090,-10.15969,-3.334261,0.353039,,,,,,,,,,,
297171,-7.256921,-1.569064,-0.078453,,,,,,,,,,,
297252,-9.571291,-0.431493,-0.11768,,,,,,,,,,,
297333,-9.728197,-2.157463,0.823759,,,,,,,,,,,
297414,-13.297818,-0.078453,1.882877,,,,,,,,,,,
297495,-10.39505,-3.92266,-1.725971,,,,,,,,,,,
297576,-12.35638,-6.158576,2.667409,,,,,,,,,,,
297657,-10.238143,1.098345,-0.156906,,,,,,,,,,,
297738,-5.962444,-0.11768,0.470719,,,,,,,,,,,
297819,-6.00167,-0.902212,2.824315,,,,,,,,,,,
297900,-8.629852,0.039227,1.804424,,,,,,,,,,,
297981,-11.650301,-1.529837,4.667965,,,,,,,,,,,
298062,-10.904996,-1.216025,0.431493,,,,,,,,,,,
298143,-8.472946,-1.372931,-0.784532,,,,,,,,,,,
298224,-10.316596,-4.471833,0.823759,,,,,,,,,,,
298305,-7.609961,-1.882877,0.11768,,,,,,,,,,,
298386,-9.414385,-0.274586,-0.039227,,,,,,,,,,,
298467,-9.728197,-0.549172,0.588399,,,,,,,,,,,
298548,-11.414941,0.862985,1.176798,,,,,,,,,,,
298629,-11.767981,-3.765754,-2.31437,,,,,,,,,,,
298710,-11.611073,-6.668522,1.922104,,,,,,,,,,,
298791,-9.061345,1.372931,-0.588399,,,,,,,,,,,
298872,-6.511616,0.078453,0.509946,,,,,,,,,,,
298953,-6.864655,-1.176798,2.745862,,,,,,,,,,,
299034,-6.746975,0.431493,1.412158,,,,,,,,,,,
299115,-13.258593,-2.157463,4.942552,,,,,,,,,,,
299683,-11.140355,-1.608291,0.23536,,,,,,,,,,,
299764,-14.866882,-3.138128,1.412158,,,,,,,,,,,
299845,-10.081236,-4.785645,-1.216025,,,,,,,,,,,
299926,-11.258035,-2.31437,1.490611,,,,,,,,,,,
300007,-9.963557,-0.470719,0.11768,,,,,,,,,,,
300088,-5.530951,0.078453,1.216025,,,,,,,,,,,
300169,-6.668522,1.922104,2.549729,,,,,,,,,,,
300250,-20.005568,-6.590069,-0.431493,,,,,,,,,,,
300331,-12.670193,4.118793,2.039783,,,,,,,,,,,
300412,-11.767981,-7.374601,-0.196133,,,,,,,,,,,
300493,-6.786202,0.509946,0.23536,,,,,,,,,,,
300574,-9.335931,-1.294478,-0.627626,,,,,,,,,,,
300655,-9.218252,-1.137571,0.078453,,,,,,,,,,,
300736,-9.649744,-0.862985,-0.23536,,,,,,,,,,,
300817,-11.061902,-1.84365,1.216025,,,,,,,,,,,
300898,-13.454725,-1.059118,2.157463,,,,,,,,,,,
300979,-9.80665,-4.354153,-2.157463,,,,,,,,,,,
301060,-11.022676,-5.530951,2.039783,,,,,,,,,,,
301141,-10.120463,1.412158,-0.509946,,,,,,,,,,,
301222,-5.923217,0.470719,0.745305,,,,,,,,,,,
301303,-6.943109,1.255251,3.255808,,,,,,,,,,,
301384,-6.982335,-0.313813,-0.353039,,,,,,,,,,,
301465,-11.846434,-0.941438,4.707192,,,,,,,,,,,
301546,-9.022119,-0.862985,1.333704,,,,,,,,,,,
301627,-9.139798,-1.84365,-0.627626,,,,,,,,,,,
301708,-10.04201,-3.569621,0.706079,,,,,,,,,,,
301789,-7.374601,-2.667409,0.274586,,,,,,,,,,,
301870,-9.492838,-0.313813,-0.274586,,,,,,,,,,,
301951,-10.198917,-0.588399,1.333704,,,,,,,,,,,
302032,-11.258035,0.392266,0.431493,,,,,,,,,,,
302113,-10.04201,-3.961887,-1.569064,,,,,,,,,,,
302194,-13.101686,-6.11935,1.451384,,,,,,,,,,,
302275,-9.924331,-0.078453,-0.431493,,,,,,,,,,,
302356,-5.962444,-0.313813,0.196133,,,,,,,,,,,
302437,-6.23703,-0.627626,2.432049,,,,,,,,,,,
302518,-8.041453,0.039227,0.980665,,,,,,,,,,,
302599,-11.964113,0,4.393379,,,,,,,,,,,
302680,-10.002784,-0.941438,0.11768,,,,,,,,,,,
302761,-10.04201,-1.96133,-0.588399,,,,,,,,,,,
302842,-10.04201,-3.648074,0.823759,,,,,,,,,,,
302923,-7.492281,-2.039783,0.156906,,,,,,,,,,,
303004,-8.982892,-0.156906,0.196133,,,,,,,,,,,
303085,-10.316596,-1.098345,0.274586,,,,,,,,,,,
303166,-11.728755,1.176798,0.11768,,,,,,,,,,,
303247,-12.2387,-3.138128,-1.569064,,,,,,,,,,,
303328,-12.081794,-5.88399,1.529837,,,,,,,,,,,
303409,-8.825986,0.588399,-0.509946,,,,,,,,,,,
303490,-8.159133,0.11768,0.862985,,,,,,,,,,,
303571,-5.88399,-0.745305,2.549729,,,,,,,,,,,
303652,-6.550843,1.608291,1.372931,,,,,,,,,,,
303733,-20.005568,-5.256365,5.099459,,,,,,,,,,,
303814,-12.552513,0.156906,1.569064,,,,,,,,,,,
303895,-6.746975,-2.941995,0.784532,,,,,,,,,,,
303976,-9.885103,-1.765197,1.255251,,,,,,,,,,,
304057,-7.884547,-2.235916,-0.431493,,,,,,,,,,,
304138,-8.472946,-0.196133,0.11768,,,,,,,,,,,
304219,-10.15969,-0.23536,0.039227,,,,,,,,,,,
304300,-11.924888,-0.980665,-0.470719,,,,,,,,,,,
304381,-15.063015,-3.295035,-0.274586,,,,,,,,,,,
304462,-10.39505,-4.667965,0.706079,,,,,,,,,,,
304543,-10.51273,-1.686744,-0.23536,,,,,,,,,,,
304624,-9.414385,-0.431493,0.11768,,,,,,,,,,,
304705,-5.530951,-0.745305,2.118237,,,,,,,,,,,
304786,-6.746975,1.529837,1.647517,,,,,,,,,,,
304867,-20.005568,-5.138685,2.353596,,,,,,,,,,,
304948,-12.199473,0.23536,2.039783,,,,,,,,,,,
305515,-14.513843,-1.882877,1.059118,,,,,,,,,,,
305596,-9.375158,-5.256365,-1.294478,,,,,,,,,,,
305677,-10.473503,-4.354153,1.686744,,,,,,,,,,,
306568,-10.27737,-1.490611,1.059118,,,,,,,,,,,
307459,-11.022676,-4.001113,0.745305,,,,,,,,,,,
307540,-7.609961,-1.608291,-0.23536,,,,,,,,,,,
308026,-10.198917,-0.078453,0.039227,,,,,,,,,,,
308107,-6.315483,-0.23536,0.470719,,,,,,,,,,,
308188,-5.530951,-0.745305,2.31437,,,,,,,,,,,
308269,-7.492281,1.019892,2.353596,,,,,,,,,,,
308350,-18.436504,-3.373488,5.138685,,,,,,,,,,,
308431,-12.042567,0.23536,0.039227,,,,,,,,,,,
308512,-6.746975,-2.510503,1.255251,,,,,,,,,,,
308593,-10.238143,-3.138128,1.176798,,,,,,,,,,,
308674,-7.806094,-2.118237,-0.666852,,,,,,,,,,,
308755,-8.43372,-0.196133,0,,,,,,,,,,,
308836,-9.610518,-1.059118,0.470719,,,,,,,,,,,
308917,-12.35638,1.686744,-1.882877,,,,,,,,,,,
308998,-14.474616,-3.765754,-1.255251,,,,,,,,,,,
309079,-10.120463,-5.099459,0.431493,,,,,,,,,,,
309160,-10.434276,-0.274586,0.039227,,,,,,,,,,,
309241,-7.296148,-1.255251,1.372931,,,,,,,,,,,
309322,-5.648631,0.274586,1.804424,,,,,,,,,,,
309403,-6.786202,2.07901,1.529837,,,,,,,,,,,
309484,-20.005568,-6.786202,4.2757,,,,,,,,,,,
309565,-13.062458,1.412158,2.628182,,,,,,,,,,,
309646,-7.374601,-3.883434,0.431493,,,,,,,,,,,
309727,-9.453611,-1.059118,0.862985,,,,,,,,,,,
309808,-7.727641,-2.471276,0.11768,,,,,,,,,,,
309889,-8.786758,-0.039227,-0.392266,,,,,,,,,,,
309970,-9.885103,-0.823759,0.156906,,,,,,,,,,,
310051,-12.277926,-0.509946,-0.078453,,,,,,,,,,,
310132,-16.004454,-2.863542,-0.078453,,,,,,,,,,,
310213,-9.767424,-5.177911,-0.470719,,,,,,,,,,,
310294,-11.571848,-1.882877,0.941438,,,,,,,,,,,
310375,-7.963,0.274586,0.392266,,,,,,,,,,,
310456,-5.88399,-0.11768,0.941438,,,,,,,,,,,
310537,-7.413828,0.313813,2.392823,,,,,,,,,,,
310618,-20.005568,-3.491168,-1.255251,,,,,,,,,,,
310699,-12.47406,3.255808,2.628182,,,,,,,,,,,
310780,-7.609961,-6.00167,1.176798,,,,,,,,,,,
310861,-8.590626,0.23536,0.23536,,,,,,,,,,,
310942,-7.649188,-2.235916,-0.156906,,,,,,,,,,,
311023,-9.218252,-0.156906,-0.313813,,,,,,,,,,,
311104,-9.649744,-0.470719,-0.196133,,,,,,,,,,,
311185,-11.297261,-0.941438,0.353039,,,,,,,,,,,
311266,-14.31771,-0.941438,1.608291,,,,,,,,,,,
311347,-10.04201,-4.942552,-2.981222,,,,,,,,,,,
311428,-12.2387,-5.76631,2.19669,,,,,,,,,,,
311509,-9.80665,1.647517,-0.509946,,,,,,,,,,,
311590,-5.256365,0.078453,0.902212,,,,,,,,,,,
311671,-6.629296,0.627626,2.706636,,,,,,,,,,,
311752,-9.728197,-1.372931,-1.490611,,,,,,,,,,,
311833,-11.689528,0.274586,4.354153,,,,,,,,,,,
311914,-14.788428,-9.571291,-0.274586,,,,,,,,,,,
311995,-6.668522,1.294478,0.078453,,,,,,,,,,,
312076,-9.845878,-3.098902,-0.980665,,,,,,,,,,,
312157,-8.708306,-1.490611,0.666852,,,,,,,,,,,
312238,-9.296705,-0.392266,-0.313813,,,,,,,,,,,
312319,-10.983448,-0.862985,0.706079,,,,,,,,,,,
312400,-14.31771,-1.216025,1.882877,,,,,,,,,,,
312481,-10.473503,-4.667965,-2.157463,,,,,,,,,,,
312562,-12.081794,-4.471833,2.549729,,,,,,,,,,,
312643,-10.355823,0.823759,-0.666852,,,,,,,,,,,
312724,-5.374045,-0.470719,0.431493,,,,,,,,,,,
312805,-5.844764,0.549172,2.353596,,,,,,,,,,,
312886,-11.571848,-1.647517,-1.451384,,,,,,,,,,,
312967,-12.748646,-0.666852,3.844207,,,,,,,,,,,
313048,-9.453611,-5.413271,0.941438,,,,,,,,,,,
313129,-8.786758,-0.862985,0.353039,,,,,,,,,,,
313210,-11.611073,-2.353596,-0.039227,,,,,,,,,,,
313291,-7.217695,-2.275143,0.23536,,,,,,,,,,,
313939,-5.570178,0.274586,3.608848,,,,,,,,,,,
314020,-9.414385,0.23536,0.078453,,,,,,,,,,,
314101,-11.375715,0.039227,4.079566,,,,,,,,,,,
314182,-11.258035,-5.687858,-0.549172,,,,,,,,,,,
314263,-8.472946,-0.039227,0.039227,,,,,,,,,,,
314344,-10.787315,-3.412714,-0.431493,,,,,,,,,,,
314425,-7.806094,-2.19669,0.11768,,,,,,,,,,,
314506,-9.100572,-0.313813,-0.627626,,,,,,,,,,,
314587,-10.826543,-0.980665,1.294478,,,,,,,,,,,
314668,-14.160804,-1.333704,1.922104,,,,,,,,,,,
314749,-10.944222,-4.197247,-2.549729,,,,,,,,,,,
314830,-11.611073,-4.2757,2.432049,,,,,,,,,,,
314911,-9.335931,0.862985,-0.509946,,,,,,,,,,,
314992,-5.099459,-0.509946,0.470719,,,,,,,,,,,
315073,-6.354709,-0.549172,2.863542,,,,,,,,,,,
315154,-10.15969,1.059118,1.608291,,,,,,,,,,,
315235,-12.003341,-0.353039,5.648631,,,,,,,,,,,
315316,-10.27737,-1.529837,-0.823759,,,,,,,,,,,
315397,-8.982892,-2.981222,0,,,,,,,,,,,
315478,-10.591183,-3.883434,1.098345,,,,,,,,,,,
315559,-8.002227,-1.765197,-0.431493,,,,,,,,,,,
315640,-8.865212,-0.588399,-0.078453,,,,,,,,,,,
315721,-9.924331,-1.529837,0.509946,,,,,,,,,,,
315802,-11.650301,1.804424,-0.274586,,,,,,,,,,,
315883,-13.023232,-4.118793,-1.765197,,,,,,,,,,,
315964,-11.689528,-5.256365,1.451384,,,,,,,,,,,
316045,-8.943666,0.745305,-0.23536,,,,,,,,,,,
316126,-6.23703,-0.431493,1.019892,,,,,,,,,,,
316207,-5.923217,-1.255251,2.863542,,,,,,,,,,,
316288,-9.492838,1.412158,2.863542,,,,,,,,,,,
316369,-17.534292,-2.706636,4.746419,,,,,,,,,,,
316450,-12.630966,-1.255251,-0.039227,,,,,,,,,,,
316531,-6.943109,-3.92266,1.686744,,,,,,,,,,,
316612,-9.767424,-2.628182,1.372931,,,,,,,,,,,
316693,-8.08068,-1.451384,-0.431493,,,,,,,,,,,
316774,-8.237586,0.078453,-0.196133,,,,,,,,,,,
316855,-9.688971,-1.216025,0,,,,,,,,,,,
316936,-12.552513,-0.156906,-1.216025,,,,,,,,,,,
317017,-15.612188,-2.549729,0,,,,,,,,,,,
317098,-9.179025,-4.2757,-1.176798,,,,,,,,,,,
317179,-12.003341,-4.432606,1.922104,,,,,,,,,,,
317260,-9.728197,0.470719,0.11768,,,,,,,,,,,
317341,-6.511616,0.039227,0.588399,,,,,,,,,,,
317422,-6.864655,-0.784532,1.647517,,,,,,,,,,,
317503,-10.63041,1.137571,-1.490611,,,,,,,,,,,
317584,-12.984006,-1.608291,4.118793,,,,,,,,,,,
317665,-14.31771,-3.412714,0.902212,,,,,,,,,,,
317746,-5.099459,-1.765197,-0.431493,,,,,,,,,,,
317827,-10.434276,-3.726527,0.078453,,,,,,,,,,,
317908,-9.963557,-2.667409,-0.078453,,,,,,,,,,,
317989,-9.80665,-2.157463,-0.23536,,,,,,,,,,,
318070,-9.80665,-1.647517,0.23536,,,,,,,,,,,
318151,-10.669636,-1.647517,-0.23536,,,,,,,,,,,
318232,-10.238143,-1.84365,0.666852,,,,,,,,,,,
318313,-10.120463,-1.451384,-0.431493,,,,,,,,,,,
318394,-9.218252,-2.549729,0.588399,,,,,,,,,,,
318475,-9.688971,-2.118237,0.431493,,,,,,,,,,,
318556,-10.63041,-2.235916,0.392266,,,,,,,,,,,
318637,-9.610518,-2.118237,0.666852,,,,,,,,,,,
318718,-9.845878,-2.000557,1.019892,,,,,,,,,,,
